age,dob,date,gender,version,counter,block,trial,rule,target,Right,Left,rt,right answer,hit,no hitsadult,25/05/1983,09/08/2015,m,1,1,1,1,car.jpg,1,car07.jpg,boat08.jpg,0.83863,1,1,1adult,25/05/1983,09/08/2015,m,1,2,1,2,car.jpg,0,boat08.jpg,cat05.jpg,0,1,0,0adult,25/05/1983,09/08/2015,m,1,3,1,3,car.jpg,0,boat07.jpg,cat10.jpg,0,1,0,0adult,25/05/1983,09/08/2015,m,1,4,1,4,car.jpg,1,car07.jpg,cat03.jpg,0.5989,1,1,1adult,25/05/1983,09/08/2015,m,1,5,1,1,car.jpg,0,boat10.jpg,cat05.jpg,0,1,0,0adult,25/05/1983,09/08/2015,m,1,6,1,2,car.jpg,0,cat07.jpg,cat04.jpg,0,1,0,0adult,25/05/1983,09/08/2015,m,1,7,1,3,car.jpg,0,cat05.jpg,boat09.jpg,0,1,0,0adult,25/05/1983,09/08/2015,m,1,8,1,4,car.jpg,1,cat07.jpg,car05.jpg,0.59878,1,1,1adult,25/05/1983,09/08/2015,m,1,9,1,1,car.jpg,1,car03.jpg,boat05.jpg,0.66144,1,1,1adult,25/05/1983,09/08/2015,m,1,10,1,2,car.jpg,1,boat08.jpg,car09.jpg,0.66136,1,1,1adult,25/05/1983,09/08/2015,m,1,11,1,3,car.jpg,1,car09.jpg,cat04.jpg,0.51366,1,1,1adult,25/05/1983,09/08/2015,m,1,12,1,4,car.jpg,0,boat08.jpg,cat07.jpg,0,1,0,0adult,25/05/1983,09/08/2015,m,1,13,1,1,car.jpg,0,boat09.jpg,cat07.jpg,0,1,0,0adult,25/05/1983,09/08/2015,m,1,14,1,2,car.jpg,1,cat06.jpg,car02.jpg,0.28364,1,1,1adult,25/05/1983,09/08/2015,m,1,15,1,3,car.jpg,1,boat07.jpg,car09.jpg,0.58719,1,1,1adult,25/05/1983,09/08/2015,m,1,16,1,4,car.jpg,0,boat03.jpg,boat02.jpg,0,1,0,0adult,25/05/1983,09/08/2015,m,1,17,1,1,car.jpg,0,cat03.jpg,cat04.jpg,0,1,0,0adult,25/05/1983,09/08/2015,m,1,18,1,2,car.jpg,1,cat09.jpg,car08.jpg,0.50335,1,1,1adult,25/05/1983,09/08/2015,m,1,19,1,3,car.jpg,1,boat03.jpg,car08.jpg,0.39227,1,1,1adult,25/05/1983,09/08/2015,m,1,20,1,4,car.jpg,0,boat05.jpg,cat02.jpg,0,1,0,0adult,25/05/1983,09/08/2015,m,1,21,1,1,car.jpg,1,car09.jpg,cat05.jpg,0.46702,1,1,1adult,25/05/1983,09/08/2015,m,1,22,1,2,car.jpg,0,boat04.jpg,cat01.jpg,0,1,0,0adult,25/05/1983,09/08/2015,m,1,23,1,3,car.jpg,1,car09.jpg,boat10.jpg,0.45434,1,1,1adult,25/05/1983,09/08/2015,m,1,24,1,4,car.jpg,1,car06.jpg,cat01.jpg,0.52953,1,1,1adult,25/05/1983,09/08/2015,m,1,25,1,1,car.jpg,1,car08.jpg,boat08.jpg,0.49001,1,1,1adult,25/05/1983,09/08/2015,m,1,26,1,2,car.jpg,1,car03.jpg,cat08.jpg,0.36888,1,1,1adult,25/05/1983,09/08/2015,m,1,27,1,3,car.jpg,1,boat09.jpg,car04.jpg,0.40583,1,1,1adult,25/05/1983,09/08/2015,m,1,28,1,4,car.jpg,1,car04.jpg,cat02.jpg,0.38047,1,1,1adult,25/05/1983,09/08/2015,m,1,29,1,1,car.jpg,1,boat02.jpg,car09.jpg,0.40391,1,1,1adult,25/05/1983,09/08/2015,m,1,30,1,2,car.jpg,1,car07.jpg,boat10.jpg,0.4535,1,1,1adult,25/05/1983,09/08/2015,m,1,31,1,3,car.jpg,1,car05.jpg,cat02.jpg,0.50339,1,1,1adult,25/05/1983,09/08/2015,m,1,32,1,4,car.jpg,0,boat05.jpg,cat06.jpg,0,1,0,0adult,25/05/1983,09/08/2015,m,1,33,1,1,car.jpg,0,boat01.jpg,cat01.jpg,0,1,0,0adult,25/05/1983,09/08/2015,m,1,34,1,2,car.jpg,1,cat05.jpg,car07.jpg,0.48974,1,1,1adult,25/05/1983,09/08/2015,m,1,35,1,3,car.jpg,1,cat02.jpg,car05.jpg,0.52749,1,1,1adult,25/05/1983,09/08/2015,m,1,36,1,4,car.jpg,0,boat09.jpg,cat01.jpg,0,1,0,0adult,25/05/1983,09/08/2015,m,1,37,1,1,car.jpg,1,boat09.jpg,car03.jpg,0.52802,1,1,1adult,25/05/1983,09/08/2015,m,1,38,1,2,car.jpg,1,car03.jpg,boat01.jpg,0.38079,1,1,1adult,25/05/1983,09/08/2015,m,1,39,1,3,car.jpg,0,cat04.jpg,boat07.jpg,0.45251,0,1,2adult,25/05/1983,09/08/2015,m,1,40,1,4,car.jpg,0,boat08.jpg,cat04.jpg,0,1,0,0adult,25/05/1983,09/08/2015,m,1,41,2,1,dog.jpg,0,boat04.jpg,boat03.jpg,0,1,0,0adult,25/05/1983,09/08/2015,m,1,42,2,2,dog.jpg,0,boat06.jpg,boat03.jpg,0,1,0,0adult,25/05/1983,09/08/2015,m,1,43,2,3,dog.jpg,0,cat10.jpg,boat04.jpg,0,1,0,0adult,25/05/1983,09/08/2015,m,1,44,2,4,dog.jpg,1,dog06.jpg,cat03.jpg,0.7949,1,1,1adult,25/05/1983,09/08/2015,m,1,45,2,1,dog.jpg,1,dog06.jpg,cat04.jpg,0.6849,1,1,1adult,25/05/1983,09/08/2015,m,1,46,2,2,dog.jpg,0,cat04.jpg,boat06.jpg,0,1,0,0adult,25/05/1983,09/08/2015,m,1,47,2,3,dog.jpg,1,boat03.jpg,dog03.jpg,0.67307,1,1,1adult,25/05/1983,09/08/2015,m,1,48,2,4,dog.jpg,1,dog05.jpg,cat01.jpg,0.67373,1,1,1adult,25/05/1983,09/08/2015,m,1,49,2,1,dog.jpg,0,cat06.jpg,boat06.jpg,0,1,0,0adult,25/05/1983,09/08/2015,m,1,50,2,2,dog.jpg,1,cat06.jpg,dog03.jpg,0.69974,1,1,1adult,25/05/1983,09/08/2015,m,1,51,2,3,dog.jpg,0,cat06.jpg,boat07.jpg,0,1,0,0adult,25/05/1983,09/08/2015,m,1,52,2,4,dog.jpg,0,boat03.jpg,cat05.jpg,0,1,0,0adult,25/05/1983,09/08/2015,m,1,53,2,1,dog.jpg,0,boat09.jpg,boat10.jpg,0,1,0,0adult,25/05/1983,09/08/2015,m,1,54,2,2,dog.jpg,1,boat09.jpg,dog09.jpg,0.79423,1,1,1adult,25/05/1983,09/08/2015,m,1,55,2,3,dog.jpg,1,cat02.jpg,dog02.jpg,0.68568,1,1,1adult,25/05/1983,09/08/2015,m,1,56,2,4,dog.jpg,1,boat01.jpg,dog01.jpg,0.58891,1,1,1adult,25/05/1983,09/08/2015,m,1,57,2,1,dog.jpg,1,dog06.jpg,boat02.jpg,0.58662,1,1,1adult,25/05/1983,09/08/2015,m,1,58,2,2,dog.jpg,0,boat04.jpg,cat03.jpg,0,1,0,0adult,25/05/1983,09/08/2015,m,1,59,2,3,dog.jpg,0,cat02.jpg,boat01.jpg,0,1,0,0adult,25/05/1983,09/08/2015,m,1,60,2,4,dog.jpg,1,boat07.jpg,dog05.jpg,0.55049,1,1,1adult,25/05/1983,09/08/2015,m,1,61,2,1,dog.jpg,1,cat05.jpg,dog07.jpg,0.58825,1,1,1adult,25/05/1983,09/08/2015,m,1,62,2,2,dog.jpg,1,dog03.jpg,boat04.jpg,0.57607,1,1,1adult,25/05/1983,09/08/2015,m,1,63,2,3,dog.jpg,1,cat09.jpg,dog04.jpg,0.5774,1,1,1adult,25/05/1983,09/08/2015,m,1,64,2,4,dog.jpg,1,boat07.jpg,dog09.jpg,0.58984,1,1,1adult,25/05/1983,09/08/2015,m,1,65,2,1,dog.jpg,1,dog07.jpg,boat07.jpg,0.59324,1,1,1adult,25/05/1983,09/08/2015,m,1,66,2,2,dog.jpg,1,cat07.jpg,dog02.jpg,0.56597,1,1,1adult,25/05/1983,09/08/2015,m,1,67,2,3,dog.jpg,1,boat06.jpg,dog04.jpg,0.46604,1,1,1adult,25/05/1983,09/08/2015,m,1,68,2,4,dog.jpg,0,boat02.jpg,boat08.jpg,0,1,0,0adult,25/05/1983,09/08/2015,m,1,69,2,1,dog.jpg,0,boat09.jpg,boat05.jpg,0,1,0,0adult,25/05/1983,09/08/2015,m,1,70,2,2,dog.jpg,0,cat05.jpg,boat05.jpg,0.65073,0,1,2adult,25/05/1983,09/08/2015,m,1,71,2,3,dog.jpg,1,boat04.jpg,dog05.jpg,0.61194,1,1,1adult,25/05/1983,09/08/2015,m,1,72,2,4,dog.jpg,0,boat01.jpg,boat04.jpg,0,1,0,0adult,25/05/1983,09/08/2015,m,1,73,2,1,dog.jpg,1,boat04.jpg,dog09.jpg,0.51507,1,1,1adult,25/05/1983,09/08/2015,m,1,74,2,2,dog.jpg,1,boat05.jpg,dog05.jpg,0.55208,1,1,1adult,25/05/1983,09/08/2015,m,1,75,2,3,dog.jpg,0,boat05.jpg,boat01.jpg,0,1,0,0adult,25/05/1983,09/08/2015,m,1,76,2,4,dog.jpg,1,cat05.jpg,dog05.jpg,0.4662,1,1,1adult,25/05/1983,09/08/2015,m,1,77,2,1,dog.jpg,1,dog05.jpg,cat01.jpg,0.72292,1,1,1adult,25/05/1983,09/08/2015,m,1,78,2,2,dog.jpg,1,dog04.jpg,cat01.jpg,0.79614,1,1,1adult,25/05/1983,09/08/2015,m,1,79,2,3,dog.jpg,1,dog04.jpg,boat04.jpg,0.40499,1,1,1adult,25/05/1983,09/08/2015,m,1,80,2,4,dog.jpg,0,boat08.jpg,cat01.jpg,0.41741,0,1,2adult,25/05/1983,09/08/2015,m,1,81,3,1,car.jpg,1,car01.jpg,cat10.jpg,0.60065,1,1,1adult,25/05/1983,09/08/2015,m,1,82,3,2,car.jpg,0,cat03.jpg,cat07.jpg,0,1,0,0adult,25/05/1983,09/08/2015,m,1,83,3,3,car.jpg,0,cat09.jpg,boat05.jpg,0,1,0,0adult,25/05/1983,09/08/2015,m,1,84,3,4,car.jpg,0,cat03.jpg,dog03.jpg,0,1,0,0adult,25/05/1983,09/08/2015,m,1,85,3,1,dog.jpg,1,car09.jpg,dog09.jpg,0.85562,1,1,1adult,25/05/1983,09/08/2015,m,1,86,3,2,dog.jpg,1,dog08.jpg,car04.jpg,0.96713,1,1,1adult,25/05/1983,09/08/2015,m,1,87,3,3,dog.jpg,1,car10.jpg,dog05.jpg,0.56397,1,1,1adult,25/05/1983,09/08/2015,m,1,88,3,4,dog.jpg,1,boat10.jpg,dog09.jpg,0.74773,1,1,1adult,25/05/1983,09/08/2015,m,1,89,3,1,car.jpg,1,dog02.jpg,car07.jpg,0.54008,1,1,1adult,25/05/1983,09/08/2015,m,1,90,3,2,car.jpg,1,cat10.jpg,car01.jpg,0.46639,1,1,1adult,25/05/1983,09/08/2015,m,1,91,3,3,car.jpg,1,dog01.jpg,car05.jpg,0.50246,1,1,1adult,25/05/1983,09/08/2015,m,1,92,3,4,car.jpg,1,dog01.jpg,car07.jpg,0.61165,1,1,1adult,25/05/1983,09/08/2015,m,1,93,3,1,dog.jpg,1,boat05.jpg,dog07.jpg,0.68564,1,1,1adult,25/05/1983,09/08/2015,m,1,94,3,2,dog.jpg,0,boat07.jpg,boat09.jpg,0,1,0,0adult,25/05/1983,09/08/2015,m,1,95,3,3,dog.jpg,0,boat08.jpg,boat04.jpg,0,1,0,0adult,25/05/1983,09/08/2015,m,1,96,3,4,dog.jpg,1,dog06.jpg,car09.jpg,0.79716,1,1,1adult,25/05/1983,09/08/2015,m,1,97,3,1,car.jpg,1,dog06.jpg,car06.jpg,0.52805,1,1,1adult,25/05/1983,09/08/2015,m,1,98,3,2,car.jpg,1,car03.jpg,dog05.jpg,0.45389,1,1,1adult,25/05/1983,09/08/2015,m,1,99,3,3,car.jpg,1,dog01.jpg,car03.jpg,0.4289,1,1,1adult,25/05/1983,09/08/2015,m,1,100,3,4,car.jpg,1,car09.jpg,boat03.jpg,0.45432,1,1,1adult,25/05/1983,09/08/2015,m,1,101,3,1,dog.jpg,0,boat06.jpg,cat07.jpg,0.52602,0,1,2adult,25/05/1983,09/08/2015,m,1,102,3,2,dog.jpg,1,car05.jpg,dog08.jpg,0.68743,1,1,1adult,25/05/1983,09/08/2015,m,1,103,3,3,dog.jpg,1,cat01.jpg,dog01.jpg,0.79628,1,1,1adult,25/05/1983,09/08/2015,m,1,104,3,4,dog.jpg,0,car08.jpg,cat07.jpg,0,1,0,0adult,25/05/1983,09/08/2015,m,1,105,3,1,car.jpg,0,boat05.jpg,cat01.jpg,0,1,0,0adult,25/05/1983,09/08/2015,m,1,106,3,2,car.jpg,0,cat02.jpg,dog07.jpg,0,1,0,0adult,25/05/1983,09/08/2015,m,1,107,3,3,car.jpg,1,car10.jpg,dog02.jpg,0.73532,1,1,1adult,25/05/1983,09/08/2015,m,1,108,3,4,car.jpg,0,cat02.jpg,dog08.jpg,0,1,0,0adult,25/05/1983,09/08/2015,m,1,109,3,1,dog.jpg,0,car02.jpg,cat09.jpg,0,1,0,0adult,25/05/1983,09/08/2015,m,1,110,3,2,dog.jpg,0,car05.jpg,cat09.jpg,0,1,0,0adult,25/05/1983,09/08/2015,m,1,111,3,3,dog.jpg,1,cat08.jpg,dog05.jpg,0.955,1,1,1adult,25/05/1983,09/08/2015,m,1,112,3,4,dog.jpg,0,car05.jpg,boat04.jpg,0,1,0,0adult,25/05/1983,09/08/2015,m,1,113,3,1,car.jpg,1,car03.jpg,boat10.jpg,0.5512,1,1,1adult,25/05/1983,09/08/2015,m,1,114,3,2,car.jpg,1,dog10.jpg,car03.jpg,0.50323,1,1,1adult,25/05/1983,09/08/2015,m,1,115,3,3,car.jpg,0,dog01.jpg,boat04.jpg,0,1,0,0adult,25/05/1983,09/08/2015,m,1,116,3,4,car.jpg,1,dog01.jpg,car06.jpg,0.68626,1,1,1adult,25/05/1983,09/08/2015,m,1,117,3,1,dog.jpg,1,cat08.jpg,dog03.jpg,0.68782,1,1,1adult,25/05/1983,09/08/2015,m,1,118,3,2,dog.jpg,0,boat08.jpg,boat10.jpg,0,1,0,0adult,25/05/1983,09/08/2015,m,1,119,3,3,dog.jpg,0,car08.jpg,cat04.jpg,0.80855,0,1,2adult,25/05/1983,09/08/2015,m,1,120,3,4,dog.jpg,1,dog09.jpg,car06.jpg,1.2375,1,1,1adult,25/05/1983,09/08/2015,m,1,121,3,1,car.jpg,0,boat06.jpg,boat05.jpg,0,1,0,0adult,25/05/1983,09/08/2015,m,1,122,3,2,car.jpg,1,car03.jpg,dog05.jpg,0.82022,1,1,1adult,25/05/1983,09/08/2015,m,1,123,3,3,car.jpg,0,dog01.jpg,cat07.jpg,0,1,0,0adult,25/05/1983,09/08/2015,m,1,124,3,4,car.jpg,0,boat06.jpg,dog05.jpg,0,1,0,0adult,25/05/1983,09/08/2015,m,1,125,3,1,dog.jpg,0,cat08.jpg,car05.jpg,0,1,0,0adult,25/05/1983,09/08/2015,m,1,126,3,2,dog.jpg,1,car09.jpg,dog06.jpg,0.78521,1,1,1adult,25/05/1983,09/08/2015,m,1,127,3,3,dog.jpg,1,dog02.jpg,car09.jpg,0.73607,1,1,1adult,25/05/1983,09/08/2015,m,1,128,3,4,dog.jpg,0,boat03.jpg,car09.jpg,0,1,0,0adult,25/05/1983,09/08/2015,m,1,129,3,1,car.jpg,0,cat10.jpg,dog01.jpg,0,1,0,0adult,25/05/1983,09/08/2015,m,1,130,3,2,car.jpg,1,cat07.jpg,car07.jpg,0.85757,1,1,1adult,25/05/1983,09/08/2015,m,1,131,3,3,car.jpg,0,boat09.jpg,boat03.jpg,0,1,0,0adult,25/05/1983,09/08/2015,m,1,132,3,4,car.jpg,1,car08.jpg,cat10.jpg,0.79586,1,1,1adult,25/05/1983,09/08/2015,m,1,133,3,1,dog.jpg,1,dog06.jpg,car05.jpg,1.1389,1,1,1adult,25/05/1983,09/08/2015,m,1,134,3,2,dog.jpg,1,dog10.jpg,car07.jpg,0.6866,1,1,1adult,25/05/1983,09/08/2015,m,1,135,3,3,dog.jpg,1,car10.jpg,dog02.jpg,0.71101,1,1,1adult,25/05/1983,09/08/2015,m,1,136,3,4,dog.jpg,0,boat03.jpg,cat03.jpg,0.47709,0,1,2adult,25/05/1983,09/08/2015,m,1,137,3,1,car.jpg,1,car08.jpg,dog01.jpg,0.50228,1,1,1adult,25/05/1983,09/08/2015,m,1,138,3,2,car.jpg,1,dog05.jpg,car09.jpg,0.64996,1,1,1adult,25/05/1983,09/08/2015,m,1,139,3,3,car.jpg,1,dog08.jpg,car01.jpg,0.41689,1,1,1adult,25/05/1983,09/08/2015,m,1,140,3,4,car.jpg,0,boat06.jpg,dog04.jpg,0,1,0,0adult,25/05/1983,09/08/2015,m,1,141,3,1,dog.jpg,1,car04.jpg,dog08.jpg,0.90515,1,1,1adult,25/05/1983,09/08/2015,m,1,142,3,2,dog.jpg,0,cat04.jpg,car08.jpg,0,1,0,0adult,25/05/1983,09/08/2015,m,1,143,3,3,dog.jpg,1,cat09.jpg,dog08.jpg,0.89482,1,1,1adult,25/05/1983,09/08/2015,m,1,144,3,4,dog.jpg,1,dog04.jpg,cat06.jpg,1.1973,1,1,1adult,25/05/1983,09/08/2015,m,1,145,3,1,car.jpg,0,cat05.jpg,dog04.jpg,0,1,0,0adult,25/05/1983,09/08/2015,m,1,146,3,2,car.jpg,1,car07.jpg,boat01.jpg,1.0776,1,1,1adult,25/05/1983,09/08/2015,m,1,147,3,3,car.jpg,0,boat02.jpg,cat03.jpg,0,1,0,0adult,25/05/1983,09/08/2015,m,1,148,3,4,car.jpg,0,boat02.jpg,boat07.jpg,0,1,0,0adult,25/05/1983,09/08/2015,m,1,149,3,1,dog.jpg,0,car02.jpg,boat07.jpg,0,1,0,0adult,25/05/1983,09/08/2015,m,1,150,3,2,dog.jpg,1,dog01.jpg,car10.jpg,0.95576,1,1,1adult,25/05/1983,09/08/2015,m,1,151,3,3,dog.jpg,0,cat02.jpg,cat05.jpg,0,1,0,0adult,25/05/1983,09/08/2015,m,1,152,3,4,dog.jpg,1,car04.jpg,dog06.jpg,0.75951,1,1,1adult,25/05/1983,09/08/2015,m,1,153,3,1,car.jpg,1,car05.jpg,dog06.jpg,0.56352,1,1,1adult,25/05/1983,09/08/2015,m,1,154,3,2,car.jpg,1,cat03.jpg,car06.jpg,0.52809,1,1,1adult,25/05/1983,09/08/2015,m,1,155,3,3,car.jpg,1,boat04.jpg,car02.jpg,0.49134,1,1,1adult,25/05/1983,09/08/2015,m,1,156,3,4,car.jpg,1,car10.jpg,dog01.jpg,0.42928,1,1,1adult,25/05/1983,09/08/2015,m,1,157,3,1,dog.jpg,1,dog10.jpg,cat02.jpg,0.6862,1,1,1adult,25/05/1983,09/08/2015,m,1,158,3,2,dog.jpg,1,dog04.jpg,car04.jpg,0.5627,1,1,1adult,25/05/1983,09/08/2015,m,1,159,3,3,dog.jpg,0,boat05.jpg,cat02.jpg,0,1,0,0adult,25/05/1983,09/08/2015,m,1,160,3,4,dog.jpg,1,dog09.jpg,boat07.jpg,0.92035,1,1,1