age,dob,date,gender,version,counter,block,trial,rule,target,Right,Left,rt,right answer,hit,no hits6,17/10/08,04/06/15,m,1,1,1,1,car.jpg,0,cat07.jpg,boat04.jpg,0,1,0,06,17/10/08,04/06/15,m,1,2,1,2,car.jpg,1,cat09.jpg,car08.jpg,1.6161,1,1,16,17/10/08,04/06/15,m,1,3,1,3,car.jpg,1,cat01.jpg,car08.jpg,0.90779,1,1,16,17/10/08,04/06/15,m,1,4,1,4,car.jpg,1,car02.jpg,boat09.jpg,1.36,1,1,16,17/10/08,04/06/15,m,1,5,1,1,car.jpg,0,cat08.jpg,boat08.jpg,0,1,0,06,17/10/08,04/06/15,m,1,6,1,2,car.jpg,1,boat05.jpg,car06.jpg,1.0383,1,1,16,17/10/08,04/06/15,m,1,7,1,3,car.jpg,1,cat03.jpg,car08.jpg,0.83092,1,1,16,17/10/08,04/06/15,m,1,8,1,4,car.jpg,1,cat01.jpg,car03.jpg,0.79666,1,1,16,17/10/08,04/06/15,m,1,9,1,1,car.jpg,1,car04.jpg,cat09.jpg,0.88267,1,1,16,17/10/08,04/06/15,m,1,10,1,2,car.jpg,1,car05.jpg,cat04.jpg,0.52522,1,1,16,17/10/08,04/06/15,m,1,11,1,3,car.jpg,0,cat07.jpg,cat04.jpg,0,1,0,06,17/10/08,04/06/15,m,1,12,1,4,car.jpg,0,cat08.jpg,boat02.jpg,0.86706,0,1,26,17/10/08,04/06/15,m,1,13,1,1,car.jpg,0,cat09.jpg,boat09.jpg,0,1,0,06,17/10/08,04/06/15,m,1,14,1,2,car.jpg,1,cat10.jpg,car01.jpg,0.95649,1,1,16,17/10/08,04/06/15,m,1,15,1,3,car.jpg,0,boat08.jpg,boat02.jpg,0,1,0,06,17/10/08,04/06/15,m,1,16,1,4,car.jpg,0,cat10.jpg,cat06.jpg,0,1,0,06,17/10/08,04/06/15,m,1,17,1,1,car.jpg,0,cat04.jpg,cat03.jpg,0,1,0,06,17/10/08,04/06/15,m,1,18,1,2,car.jpg,1,car10.jpg,cat06.jpg,0.67438,1,1,16,17/10/08,04/06/15,m,1,19,1,3,car.jpg,0,cat03.jpg,boat01.jpg,0,1,0,06,17/10/08,04/06/15,m,1,20,1,4,car.jpg,0,cat08.jpg,cat07.jpg,0,1,0,06,17/10/08,04/06/15,m,1,21,1,1,car.jpg,1,boat05.jpg,car05.jpg,0.87574,1,1,16,17/10/08,04/06/15,m,1,22,1,2,car.jpg,1,cat10.jpg,car07.jpg,0.7952,1,1,16,17/10/08,04/06/15,m,1,23,1,3,car.jpg,1,car10.jpg,boat07.jpg,0.89451,1,1,16,17/10/08,04/06/15,m,1,24,1,4,car.jpg,1,cat10.jpg,car03.jpg,0.64996,1,1,16,17/10/08,04/06/15,m,1,25,1,1,car.jpg,1,boat05.jpg,car04.jpg,0.72152,1,1,16,17/10/08,04/06/15,m,1,26,1,2,car.jpg,0,cat01.jpg,boat09.jpg,0.58799,0,1,26,17/10/08,04/06/15,m,1,27,1,3,car.jpg,1,car08.jpg,boat02.jpg,0.94101,1,1,16,17/10/08,04/06/15,m,1,28,1,4,car.jpg,0,boat07.jpg,cat03.jpg,0,1,0,06,17/10/08,04/06/15,m,1,29,1,1,car.jpg,1,car06.jpg,cat10.jpg,0.74613,1,1,16,17/10/08,04/06/15,m,1,30,1,2,car.jpg,0,cat06.jpg,boat10.jpg,0,1,0,06,17/10/08,04/06/15,m,1,31,1,3,car.jpg,1,cat04.jpg,car10.jpg,0.70046,1,1,16,17/10/08,04/06/15,m,1,32,1,4,car.jpg,1,cat03.jpg,car01.jpg,0.63608,1,1,16,17/10/08,04/06/15,m,1,33,1,1,car.jpg,1,boat03.jpg,car06.jpg,0.71208,1,1,16,17/10/08,04/06/15,m,1,34,1,2,car.jpg,1,boat06.jpg,car03.jpg,0.91805,1,1,16,17/10/08,04/06/15,m,1,35,1,3,car.jpg,1,car07.jpg,boat01.jpg,0.74583,1,1,16,17/10/08,04/06/15,m,1,36,1,4,car.jpg,0,boat09.jpg,boat01.jpg,0,1,0,06,17/10/08,04/06/15,m,1,37,1,1,car.jpg,1,boat03.jpg,car02.jpg,0.87085,1,1,16,17/10/08,04/06/15,m,1,38,1,2,car.jpg,0,cat01.jpg,boat08.jpg,0,1,0,06,17/10/08,04/06/15,m,1,39,1,3,car.jpg,1,car02.jpg,boat02.jpg,0.71038,1,1,16,17/10/08,04/06/15,m,1,40,1,4,car.jpg,0,cat07.jpg,cat03.jpg,0,1,0,06,17/10/08,04/06/15,m,1,41,2,1,dog.jpg,1,dog02.jpg,cat09.jpg,1.4947,1,1,16,17/10/08,04/06/15,m,1,42,2,2,dog.jpg,1,cat10.jpg,dog02.jpg,0.72288,1,1,16,17/10/08,04/06/15,m,1,43,2,3,dog.jpg,0,cat07.jpg,boat02.jpg,0,1,0,06,17/10/08,04/06/15,m,1,44,2,4,dog.jpg,1,boat06.jpg,dog05.jpg,0.75985,1,1,16,17/10/08,04/06/15,m,1,45,2,1,dog.jpg,1,dog01.jpg,cat08.jpg,0.84549,1,1,16,17/10/08,04/06/15,m,1,46,2,2,dog.jpg,1,dog07.jpg,cat04.jpg,1.2723,1,1,16,17/10/08,04/06/15,m,1,47,2,3,dog.jpg,1,cat02.jpg,dog04.jpg,0.91755,1,1,16,17/10/08,04/06/15,m,1,48,2,4,dog.jpg,1,dog06.jpg,cat06.jpg,1.1128,1,1,16,17/10/08,04/06/15,m,1,49,2,1,dog.jpg,1,boat01.jpg,dog01.jpg,1.016,1,1,16,17/10/08,04/06/15,m,1,50,2,2,dog.jpg,1,boat06.jpg,dog09.jpg,0.89134,1,1,16,17/10/08,04/06/15,m,1,51,2,3,dog.jpg,0,boat04.jpg,cat03.jpg,0.64928,0,1,26,17/10/08,04/06/15,m,1,52,2,4,dog.jpg,0,boat01.jpg,cat03.jpg,0,1,0,06,17/10/08,04/06/15,m,1,53,2,1,dog.jpg,0,boat02.jpg,boat03.jpg,0,1,0,06,17/10/08,04/06/15,m,1,54,2,2,dog.jpg,0,boat07.jpg,cat05.jpg,0,1,0,06,17/10/08,04/06/15,m,1,55,2,3,dog.jpg,1,dog09.jpg,boat09.jpg,1.1144,1,1,16,17/10/08,04/06/15,m,1,56,2,4,dog.jpg,1,dog02.jpg,cat04.jpg,0.93115,1,1,16,17/10/08,04/06/15,m,1,57,2,1,dog.jpg,0,cat09.jpg,boat01.jpg,0.88018,0,1,26,17/10/08,04/06/15,m,1,58,2,2,dog.jpg,1,dog10.jpg,boat08.jpg,1.0032,1,1,16,17/10/08,04/06/15,m,1,59,2,3,dog.jpg,1,cat10.jpg,dog04.jpg,0.97828,1,1,16,17/10/08,04/06/15,m,1,60,2,4,dog.jpg,1,dog08.jpg,boat01.jpg,1.2,1,1,16,17/10/08,04/06/15,m,1,61,2,1,dog.jpg,0,cat08.jpg,cat09.jpg,0,1,0,06,17/10/08,04/06/15,m,1,62,2,2,dog.jpg,1,dog06.jpg,boat03.jpg,0.7832,1,1,16,17/10/08,04/06/15,m,1,63,2,3,dog.jpg,1,dog06.jpg,cat08.jpg,1.1487,1,1,16,17/10/08,04/06/15,m,1,64,2,4,dog.jpg,0,cat03.jpg,boat07.jpg,0,1,0,06,17/10/08,04/06/15,m,1,65,2,1,dog.jpg,1,dog01.jpg,boat08.jpg,0.78338,1,1,16,17/10/08,04/06/15,m,1,66,2,2,dog.jpg,0,boat09.jpg,boat03.jpg,0,1,0,06,17/10/08,04/06/15,m,1,67,2,3,dog.jpg,1,boat05.jpg,dog04.jpg,0.79499,1,1,16,17/10/08,04/06/15,m,1,68,2,4,dog.jpg,0,cat09.jpg,boat03.jpg,0,1,0,06,17/10/08,04/06/15,m,1,69,2,1,dog.jpg,1,boat07.jpg,dog05.jpg,1.0036,1,1,16,17/10/08,04/06/15,m,1,70,2,2,dog.jpg,0,cat05.jpg,cat04.jpg,0,1,0,06,17/10/08,04/06/15,m,1,71,2,3,dog.jpg,0,cat05.jpg,cat01.jpg,0,1,0,06,17/10/08,04/06/15,m,1,72,2,4,dog.jpg,1,dog01.jpg,cat07.jpg,0.72414,1,1,16,17/10/08,04/06/15,m,1,73,2,1,dog.jpg,0,cat10.jpg,boat08.jpg,0,1,0,06,17/10/08,04/06/15,m,1,74,2,2,dog.jpg,0,boat02.jpg,boat07.jpg,0,1,0,06,17/10/08,04/06/15,m,1,75,2,3,dog.jpg,0,cat07.jpg,cat04.jpg,0,1,0,06,17/10/08,04/06/15,m,1,76,2,4,dog.jpg,1,boat04.jpg,dog05.jpg,0.87042,1,1,16,17/10/08,04/06/15,m,1,77,2,1,dog.jpg,1,boat07.jpg,dog09.jpg,0.94221,1,1,16,17/10/08,04/06/15,m,1,78,2,2,dog.jpg,1,dog03.jpg,boat07.jpg,1.333,1,1,16,17/10/08,04/06/15,m,1,79,2,3,dog.jpg,1,dog10.jpg,cat05.jpg,1.2126,1,1,16,17/10/08,04/06/15,m,1,80,2,4,dog.jpg,0,cat02.jpg,boat08.jpg,0,1,0,06,17/10/08,04/06/15,m,1,81,3,1,car.jpg,0,dog06.jpg,boat06.jpg,0,1,0,06,17/10/08,04/06/15,m,1,82,3,2,car.jpg,1,dog07.jpg,car09.jpg,1.1353,1,1,16,17/10/08,04/06/15,m,1,83,3,3,car.jpg,1,car09.jpg,dog10.jpg,1.0643,1,1,16,17/10/08,04/06/15,m,1,84,3,4,car.jpg,0,cat05.jpg,dog10.jpg,1.0029,0,1,26,17/10/08,04/06/15,m,1,85,3,1,dog.jpg,1,car01.jpg,dog05.jpg,1.5904,1,1,16,17/10/08,04/06/15,m,1,86,3,2,dog.jpg,1,dog09.jpg,car06.jpg,1.1871,1,1,16,17/10/08,04/06/15,m,1,87,3,3,dog.jpg,1,boat03.jpg,dog03.jpg,1.1888,1,1,16,17/10/08,04/06/15,m,1,88,3,4,dog.jpg,1,dog03.jpg,car01.jpg,0.80856,1,1,16,17/10/08,04/06/15,m,1,89,3,1,car.jpg,1,car08.jpg,dog03.jpg,0.73552,1,1,16,17/10/08,04/06/15,m,1,90,3,2,car.jpg,1,dog06.jpg,car07.jpg,0.82044,1,1,16,17/10/08,04/06/15,m,1,91,3,3,car.jpg,1,car06.jpg,boat04.jpg,0.87058,1,1,16,17/10/08,04/06/15,m,1,92,3,4,car.jpg,0,boat01.jpg,cat06.jpg,0,1,0,06,17/10/08,04/06/15,m,1,93,3,1,dog.jpg,1,car03.jpg,dog10.jpg,1.2846,1,1,16,17/10/08,04/06/15,m,1,94,3,2,dog.jpg,0,cat02.jpg,car09.jpg,1.029,0,1,26,17/10/08,04/06/15,m,1,95,3,3,dog.jpg,1,dog07.jpg,car06.jpg,1.7048,1,1,16,17/10/08,04/06/15,m,1,96,3,4,dog.jpg,1,dog03.jpg,car01.jpg,1.4921,1,1,16,17/10/08,04/06/15,m,1,97,3,1,car.jpg,0,boat07.jpg,cat08.jpg,0,1,0,06,17/10/08,04/06/15,m,1,98,3,2,car.jpg,1,dog04.jpg,car04.jpg,0.72053,1,1,16,17/10/08,04/06/15,m,1,99,3,3,car.jpg,1,car05.jpg,dog06.jpg,1.1994,1,1,16,17/10/08,04/06/15,m,1,100,3,4,car.jpg,0,dog07.jpg,cat07.jpg,0,1,0,06,17/10/08,04/06/15,m,1,101,3,1,dog.jpg,0,boat08.jpg,car06.jpg,0,1,0,06,17/10/08,04/06/15,m,1,102,3,2,dog.jpg,0,car06.jpg,boat03.jpg,1.6507,0,1,26,17/10/08,04/06/15,m,1,103,3,3,dog.jpg,0,car10.jpg,boat08.jpg,0,1,0,06,17/10/08,04/06/15,m,1,104,3,4,dog.jpg,1,dog08.jpg,car09.jpg,2.926,1,1,16,17/10/08,04/06/15,m,1,105,3,1,car.jpg,1,car05.jpg,boat09.jpg,1.898,1,1,16,17/10/08,04/06/15,m,1,106,3,2,car.jpg,1,dog07.jpg,car03.jpg,1.6161,1,1,16,17/10/08,04/06/15,m,1,107,3,3,car.jpg,1,car07.jpg,boat04.jpg,0.91657,1,1,16,17/10/08,04/06/15,m,1,108,3,4,car.jpg,0,boat01.jpg,boat07.jpg,0,1,0,06,17/10/08,04/06/15,m,1,109,3,1,dog.jpg,1,dog09.jpg,cat08.jpg,2.0161,1,1,16,17/10/08,04/06/15,m,1,110,3,2,dog.jpg,0,cat05.jpg,cat04.jpg,0,1,0,06,17/10/08,04/06/15,m,1,111,3,3,dog.jpg,1,dog05.jpg,boat08.jpg,1.0419,1,1,16,17/10/08,04/06/15,m,1,112,3,4,dog.jpg,0,boat07.jpg,car10.jpg,0,1,0,06,17/10/08,04/06/15,m,1,113,3,1,car.jpg,1,dog06.jpg,car07.jpg,1.2863,1,1,16,17/10/08,04/06/15,m,1,114,3,2,car.jpg,0,dog06.jpg,boat09.jpg,0,1,0,06,17/10/08,04/06/15,m,1,115,3,3,car.jpg,1,dog09.jpg,car09.jpg,0.83127,1,1,16,17/10/08,04/06/15,m,1,116,3,4,car.jpg,0,boat10.jpg,boat06.jpg,0,1,0,06,17/10/08,04/06/15,m,1,117,3,1,dog.jpg,1,car07.jpg,dog10.jpg,1.1757,1,1,16,17/10/08,04/06/15,m,1,118,3,2,dog.jpg,1,dog06.jpg,boat06.jpg,1.5083,1,1,16,17/10/08,04/06/15,m,1,119,3,3,dog.jpg,0,car07.jpg,cat07.jpg,1.6256,0,1,26,17/10/08,04/06/15,m,1,120,3,4,dog.jpg,0,boat03.jpg,cat01.jpg,0,1,0,06,17/10/08,04/06/15,m,1,121,3,1,car.jpg,0,cat05.jpg,boat09.jpg,0,1,0,06,17/10/08,04/06/15,m,1,122,3,2,car.jpg,1,dog08.jpg,car10.jpg,1.3742,1,1,16,17/10/08,04/06/15,m,1,123,3,3,car.jpg,1,boat05.jpg,car10.jpg,0.82073,1,1,16,17/10/08,04/06/15,m,1,124,3,4,car.jpg,0,boat01.jpg,boat09.jpg,0,1,0,06,17/10/08,04/06/15,m,1,125,3,1,dog.jpg,0,boat09.jpg,cat04.jpg,0,1,0,06,17/10/08,04/06/15,m,1,126,3,2,dog.jpg,1,dog02.jpg,car01.jpg,0.90683,1,1,16,17/10/08,04/06/15,m,1,127,3,3,dog.jpg,1,car02.jpg,dog10.jpg,2.1158,1,1,16,17/10/08,04/06/15,m,1,128,3,4,dog.jpg,1,dog07.jpg,car01.jpg,1.6398,1,1,16,17/10/08,04/06/15,m,1,129,3,1,car.jpg,1,dog02.jpg,car01.jpg,1.4442,1,1,16,17/10/08,04/06/15,m,1,130,3,2,car.jpg,1,car04.jpg,boat02.jpg,0.73696,1,1,16,17/10/08,04/06/15,m,1,131,3,3,car.jpg,1,car07.jpg,boat05.jpg,0.69764,1,1,16,17/10/08,04/06/15,m,1,132,3,4,car.jpg,1,dog06.jpg,car10.jpg,0.79647,1,1,16,17/10/08,04/06/15,m,1,133,3,1,dog.jpg,1,dog05.jpg,car02.jpg,0.6738,1,1,16,17/10/08,04/06/15,m,1,134,3,2,dog.jpg,0,boat07.jpg,boat09.jpg,0,1,0,06,17/10/08,04/06/15,m,1,135,3,3,dog.jpg,1,car09.jpg,dog06.jpg,2.2261,1,1,16,17/10/08,04/06/15,m,1,136,3,4,dog.jpg,1,dog09.jpg,boat10.jpg,1.0893,1,1,16,17/10/08,04/06/15,m,1,137,3,1,car.jpg,1,dog06.jpg,car06.jpg,0.90705,1,1,16,17/10/08,04/06/15,m,1,138,3,2,car.jpg,0,boat08.jpg,cat08.jpg,0,1,0,06,17/10/08,04/06/15,m,1,139,3,3,car.jpg,1,boat03.jpg,car09.jpg,1.615,1,1,16,17/10/08,04/06/15,m,1,140,3,4,car.jpg,1,car05.jpg,dog05.jpg,1.7634,1,1,16,17/10/08,04/06/15,m,1,141,3,1,dog.jpg,0,boat10.jpg,car06.jpg,0,1,0,06,17/10/08,04/06/15,m,1,142,3,2,dog.jpg,1,car02.jpg,dog09.jpg,1.6168,1,1,16,17/10/08,04/06/15,m,1,143,3,3,dog.jpg,0,boat06.jpg,boat08.jpg,0,1,0,06,17/10/08,04/06/15,m,1,144,3,4,dog.jpg,1,dog09.jpg,car05.jpg,1.3333,1,1,16,17/10/08,04/06/15,m,1,145,3,1,car.jpg,0,cat07.jpg,boat06.jpg,0,1,0,06,17/10/08,04/06/15,m,1,146,3,2,car.jpg,1,car01.jpg,dog02.jpg,1.258,1,1,16,17/10/08,04/06/15,m,1,147,3,3,car.jpg,0,dog06.jpg,cat03.jpg,0,1,0,06,17/10/08,04/06/15,m,1,148,3,4,car.jpg,1,dog01.jpg,car08.jpg,1.8734,1,1,16,17/10/08,04/06/15,m,1,149,3,1,dog.jpg,1,boat09.jpg,dog04.jpg,1.4815,1,1,16,17/10/08,04/06/15,m,1,150,3,2,dog.jpg,1,boat08.jpg,dog08.jpg,1.3482,1,1,16,17/10/08,04/06/15,m,1,151,3,3,dog.jpg,0,car08.jpg,boat05.jpg,0,1,0,06,17/10/08,04/06/15,m,1,152,3,4,dog.jpg,0,boat02.jpg,boat08.jpg,0,1,0,06,17/10/08,04/06/15,m,1,153,3,1,car.jpg,1,car06.jpg,dog10.jpg,0.67233,1,1,16,17/10/08,04/06/15,m,1,154,3,2,car.jpg,0,cat04.jpg,boat03.jpg,0,1,0,06,17/10/08,04/06/15,m,1,155,3,3,car.jpg,0,cat05.jpg,dog05.jpg,0,1,0,06,17/10/08,04/06/15,m,1,156,3,4,car.jpg,0,cat02.jpg,dog03.jpg,0,1,0,06,17/10/08,04/06/15,m,1,157,3,1,dog.jpg,0,boat03.jpg,cat07.jpg,0,1,0,06,17/10/08,04/06/15,m,1,158,3,2,dog.jpg,1,dog02.jpg,boat09.jpg,1.0406,1,1,16,17/10/08,04/06/15,m,1,159,3,3,dog.jpg,0,cat01.jpg,boat06.jpg,0,1,0,06,17/10/08,04/06/15,m,1,160,3,4,dog.jpg,1,car02.jpg,dog05.jpg,1.6521,1,1,1