age,dob,date,gender,version,counter,block,trial,rule,target,Right,Left,rt,right answer,hit,no hits4,01/07/10,12/05/15,f,2,1,1,1,dog.jpg,1,cat06.jpg,dog09.jpg,0,0,0,14,01/07/10,12/05/15,f,2,2,1,2,dog.jpg,0,cat10.jpg,cat06.jpg,0,1,0,04,01/07/10,12/05/15,f,2,3,1,3,dog.jpg,1,dog04.jpg,cat01.jpg,3.5456,1,1,14,01/07/10,12/05/15,f,2,4,1,4,dog.jpg,1,cat07.jpg,dog08.jpg,2.6738,1,1,14,01/07/10,12/05/15,f,2,5,1,1,dog.jpg,0,boat08.jpg,boat07.jpg,0,1,0,04,01/07/10,12/05/15,f,2,6,1,2,dog.jpg,1,dog07.jpg,boat02.jpg,3.3302,1,1,14,01/07/10,12/05/15,f,2,7,1,3,dog.jpg,0,boat09.jpg,boat06.jpg,0,1,0,04,01/07/10,12/05/15,f,2,8,1,4,dog.jpg,1,dog04.jpg,cat03.jpg,1.8012,1,1,14,01/07/10,12/05/15,f,2,9,1,1,dog.jpg,0,cat01.jpg,boat01.jpg,0,1,0,14,01/07/10,12/05/15,f,2,10,1,2,dog.jpg,0,cat07.jpg,cat04.jpg,2.4975,0,1,24,01/07/10,12/05/15,f,2,11,1,3,dog.jpg,1,boat04.jpg,dog05.jpg,3.1958,1,1,14,01/07/10,12/05/15,f,2,12,1,4,dog.jpg,0,cat10.jpg,cat04.jpg,1.3242,0,1,34,01/07/10,12/05/15,f,2,13,1,1,dog.jpg,1,dog02.jpg,boat05.jpg,1.4825,1,1,14,01/07/10,12/05/15,f,2,14,1,2,dog.jpg,0,boat07.jpg,boat10.jpg,0,1,0,04,01/07/10,12/05/15,f,2,15,1,3,dog.jpg,0,cat08.jpg,cat02.jpg,3.6378,0,1,24,01/07/10,12/05/15,f,2,16,1,4,dog.jpg,1,dog05.jpg,cat02.jpg,1.4559,1,1,14,01/07/10,12/05/15,f,2,17,1,1,dog.jpg,1,dog05.jpg,cat07.jpg,1.7486,1,1,14,01/07/10,12/05/15,f,2,18,1,2,dog.jpg,1,cat02.jpg,dog02.jpg,2.8908,1,1,14,01/07/10,12/05/15,f,2,19,1,3,dog.jpg,1,boat08.jpg,dog03.jpg,2.1295,1,1,14,01/07/10,12/05/15,f,2,20,1,4,dog.jpg,0,cat07.jpg,cat09.jpg,2.0447,0,1,24,01/07/10,12/05/15,f,2,21,1,1,dog.jpg,1,dog01.jpg,boat05.jpg,1.2489,1,1,14,01/07/10,12/05/15,f,2,22,1,2,dog.jpg,0,cat07.jpg,boat08.jpg,1.936,0,1,24,01/07/10,12/05/15,f,2,23,1,3,dog.jpg,0,boat06.jpg,boat05.jpg,0,1,0,14,01/07/10,12/05/15,f,2,24,1,4,dog.jpg,1,dog02.jpg,cat07.jpg,0,0,0,04,01/07/10,12/05/15,f,2,25,1,1,dog.jpg,0,boat06.jpg,cat09.jpg,1.9951,0,1,24,01/07/10,12/05/15,f,2,26,1,2,dog.jpg,0,cat01.jpg,boat07.jpg,3.4417,0,1,24,01/07/10,12/05/15,f,2,27,1,3,dog.jpg,0,boat05.jpg,cat06.jpg,3.0744,0,1,24,01/07/10,12/05/15,f,2,28,1,4,dog.jpg,1,cat09.jpg,dog07.jpg,1.8126,1,1,14,01/07/10,12/05/15,f,2,29,1,1,dog.jpg,1,cat02.jpg,dog08.jpg,1.9354,1,1,14,01/07/10,12/05/15,f,2,30,1,2,dog.jpg,1,boat04.jpg,dog07.jpg,1.3349,1,1,14,01/07/10,12/05/15,f,2,31,1,3,dog.jpg,1,dog01.jpg,cat10.jpg,1.5805,1,1,14,01/07/10,12/05/15,f,2,32,1,4,dog.jpg,1,boat06.jpg,dog09.jpg,1.6532,1,1,14,01/07/10,12/05/15,f,2,33,1,1,dog.jpg,1,boat08.jpg,dog01.jpg,2.9263,1,1,14,01/07/10,12/05/15,f,2,34,1,2,dog.jpg,1,cat03.jpg,dog02.jpg,0.72413,1,1,24,01/07/10,12/05/15,f,2,35,1,3,dog.jpg,1,dog03.jpg,boat01.jpg,0.95433,1,1,14,01/07/10,12/05/15,f,2,36,1,4,dog.jpg,1,dog08.jpg,boat05.jpg,1.0163,1,1,14,01/07/10,12/05/15,f,2,37,1,1,dog.jpg,0,boat07.jpg,boat05.jpg,3.7856,0,1,24,01/07/10,12/05/15,f,2,38,1,2,dog.jpg,1,boat09.jpg,dog09.jpg,3.4724,1,1,14,01/07/10,12/05/15,f,2,39,1,3,dog.jpg,1,dog04.jpg,cat09.jpg,1.7515,1,1,14,01/07/10,12/05/15,f,2,40,1,4,dog.jpg,0,boat05.jpg,cat10.jpg,1.2859,0,1,24,01/07/10,12/05/15,f,2,41,2,1,car.jpg,1,cat10.jpg,car04.jpg,0,0,0,14,01/07/10,12/05/15,f,2,42,2,2,car.jpg,1,car05.jpg,boat09.jpg,2.4238,1,1,14,01/07/10,12/05/15,f,2,43,2,3,car.jpg,1,boat10.jpg,car07.jpg,1.4329,1,1,14,01/07/10,12/05/15,f,2,44,2,4,car.jpg,1,cat07.jpg,car10.jpg,1.5415,1,1,14,01/07/10,12/05/15,f,2,45,2,1,car.jpg,0,boat08.jpg,boat04.jpg,0,1,0,04,01/07/10,12/05/15,f,2,46,2,2,car.jpg,0,cat07.jpg,boat06.jpg,3.6171,0,1,24,01/07/10,12/05/15,f,2,47,2,3,car.jpg,0,cat10.jpg,cat05.jpg,0,1,0,04,01/07/10,12/05/15,f,2,48,2,4,car.jpg,0,cat04.jpg,cat01.jpg,2.6202,0,1,24,01/07/10,12/05/15,f,2,49,2,1,car.jpg,1,boat02.jpg,car10.jpg,1.9453,1,1,14,01/07/10,12/05/15,f,2,50,2,2,car.jpg,0,cat10.jpg,cat09.jpg,2.3529,0,1,24,01/07/10,12/05/15,f,2,51,2,3,car.jpg,1,car10.jpg,boat01.jpg,2.4878,1,1,14,01/07/10,12/05/15,f,2,52,2,4,car.jpg,1,boat02.jpg,car03.jpg,3.2059,1,1,24,01/07/10,12/05/15,f,2,53,2,1,car.jpg,1,car05.jpg,boat02.jpg,1.2248,1,1,14,01/07/10,12/05/15,f,2,54,2,2,car.jpg,1,car06.jpg,cat03.jpg,2.7439,1,1,14,01/07/10,12/05/15,f,2,55,2,3,car.jpg,1,car05.jpg,boat05.jpg,0.99373,1,1,14,01/07/10,12/05/15,f,2,56,2,4,car.jpg,0,cat01.jpg,cat04.jpg,1.8509,0,1,24,01/07/10,12/05/15,f,2,57,2,1,car.jpg,0,boat09.jpg,cat08.jpg,2.5916,0,1,24,01/07/10,12/05/15,f,2,58,2,2,car.jpg,0,cat04.jpg,cat01.jpg,2.7516,0,1,24,01/07/10,12/05/15,f,2,59,2,3,car.jpg,0,cat03.jpg,cat05.jpg,3.5637,0,1,24,01/07/10,12/05/15,f,2,60,2,4,car.jpg,1,boat06.jpg,car09.jpg,1.6146,1,1,14,01/07/10,12/05/15,f,2,61,2,1,car.jpg,0,cat10.jpg,boat04.jpg,2.0461,0,1,24,01/07/10,12/05/15,f,2,62,2,2,car.jpg,1,car10.jpg,cat06.jpg,1.8365,1,1,14,01/07/10,12/05/15,f,2,63,2,3,car.jpg,1,cat07.jpg,car04.jpg,1.5159,1,1,14,01/07/10,12/05/15,f,2,64,2,4,car.jpg,0,boat07.jpg,cat09.jpg,1.8358,0,1,24,01/07/10,12/05/15,f,2,65,2,1,car.jpg,1,car08.jpg,boat02.jpg,1.7388,1,1,14,01/07/10,12/05/15,f,2,66,2,2,car.jpg,0,cat08.jpg,cat05.jpg,1.4941,0,1,34,01/07/10,12/05/15,f,2,67,2,3,car.jpg,1,cat06.jpg,car09.jpg,1.5412,1,1,14,01/07/10,12/05/15,f,2,68,2,4,car.jpg,1,cat09.jpg,car02.jpg,1.6519,1,1,14,01/07/10,12/05/15,f,2,69,2,1,car.jpg,0,cat01.jpg,cat04.jpg,1.7379,0,1,24,01/07/10,12/05/15,f,2,70,2,2,car.jpg,1,car07.jpg,boat10.jpg,0,0,0,04,01/07/10,12/05/15,f,2,71,2,3,car.jpg,1,car02.jpg,cat02.jpg,0,0,0,04,01/07/10,12/05/15,f,2,72,2,4,car.jpg,0,boat01.jpg,cat10.jpg,1.5546,0,1,24,01/07/10,12/05/15,f,2,73,2,1,car.jpg,1,cat08.jpg,car04.jpg,1.4215,1,1,14,01/07/10,12/05/15,f,2,74,2,2,car.jpg,1,cat03.jpg,car08.jpg,1.6405,1,1,14,01/07/10,12/05/15,f,2,75,2,3,car.jpg,0,boat03.jpg,cat01.jpg,1.5925,0,1,24,01/07/10,12/05/15,f,2,76,2,4,car.jpg,1,cat04.jpg,car07.jpg,0,0,0,14,01/07/10,12/05/15,f,2,77,2,1,car.jpg,1,boat08.jpg,car02.jpg,1.7003,1,1,14,01/07/10,12/05/15,f,2,78,2,2,car.jpg,1,car08.jpg,cat05.jpg,1.3871,1,1,14,01/07/10,12/05/15,f,2,79,2,3,car.jpg,0,boat04.jpg,cat02.jpg,1.2143,0,1,24,01/07/10,12/05/15,f,2,80,2,4,car.jpg,1,car10.jpg,boat02.jpg,0,0,0,14,01/07/10,12/05/15,f,2,81,3,1,car.jpg,0,boat09.jpg,cat03.jpg,3.1606,0,1,24,01/07/10,12/05/15,f,2,82,3,2,car.jpg,1,dog06.jpg,car01.jpg,3.2444,1,1,14,01/07/10,12/05/15,f,2,83,3,3,car.jpg,1,car04.jpg,dog08.jpg,1.6291,1,1,14,01/07/10,12/05/15,f,2,84,3,4,car.jpg,0,boat02.jpg,cat04.jpg,1.3463,0,1,24,01/07/10,12/05/15,f,2,85,3,1,dog.jpg,1,car07.jpg,dog10.jpg,1.4077,1,1,14,01/07/10,12/05/15,f,2,86,3,2,dog.jpg,1,dog07.jpg,car10.jpg,1.4822,1,1,14,01/07/10,12/05/15,f,2,87,3,3,dog.jpg,0,car09.jpg,cat10.jpg,1.3221,0,1,24,01/07/10,12/05/15,f,2,88,3,4,dog.jpg,1,dog04.jpg,cat08.jpg,1.6047,1,1,14,01/07/10,12/05/15,f,2,89,3,1,car.jpg,1,dog02.jpg,car08.jpg,0,0,0,04,01/07/10,12/05/15,f,2,90,3,2,car.jpg,1,dog05.jpg,car09.jpg,1.6994,1,1,14,01/07/10,12/05/15,f,2,91,3,3,car.jpg,0,cat08.jpg,dog01.jpg,0,1,0,04,01/07/10,12/05/15,f,2,92,3,4,car.jpg,0,cat10.jpg,dog08.jpg,1.5296,0,1,24,01/07/10,12/05/15,f,2,93,3,1,dog.jpg,0,car06.jpg,boat05.jpg,0,1,0,04,01/07/10,12/05/15,f,2,94,3,2,dog.jpg,1,dog09.jpg,boat08.jpg,1.5179,1,1,14,01/07/10,12/05/15,f,2,95,3,3,dog.jpg,0,car08.jpg,boat06.jpg,3.2195,0,1,24,01/07/10,12/05/15,f,2,96,3,4,dog.jpg,0,car05.jpg,cat04.jpg,1.618,0,1,24,01/07/10,12/05/15,f,2,97,3,1,car.jpg,0,dog04.jpg,boat02.jpg,0,1,0,04,01/07/10,12/05/15,f,2,98,3,2,car.jpg,1,car04.jpg,dog02.jpg,1.5071,1,1,14,01/07/10,12/05/15,f,2,99,3,3,car.jpg,1,dog09.jpg,car04.jpg,1.5561,1,1,14,01/07/10,12/05/15,f,2,100,3,4,car.jpg,0,cat05.jpg,dog08.jpg,0,1,0,04,01/07/10,12/05/15,f,2,101,3,1,dog.jpg,0,boat02.jpg,car06.jpg,1.3351,0,1,34,01/07/10,12/05/15,f,2,102,3,2,dog.jpg,0,cat08.jpg,car07.jpg,1.4065,0,1,24,01/07/10,12/05/15,f,2,103,3,3,dog.jpg,1,boat09.jpg,dog01.jpg,1.9048,1,1,14,01/07/10,12/05/15,f,2,104,3,4,dog.jpg,0,cat05.jpg,car01.jpg,0,1,0,04,01/07/10,12/05/15,f,2,105,3,1,car.jpg,0,boat06.jpg,boat03.jpg,2.0558,0,1,24,01/07/10,12/05/15,f,2,106,3,2,car.jpg,1,car06.jpg,dog10.jpg,1.3977,1,1,14,01/07/10,12/05/15,f,2,107,3,3,car.jpg,1,car08.jpg,dog06.jpg,0,0,0,04,01/07/10,12/05/15,f,2,108,3,4,car.jpg,0,boat01.jpg,cat06.jpg,0,1,0,04,01/07/10,12/05/15,f,2,109,3,1,dog.jpg,1,boat10.jpg,dog04.jpg,0,0,0,04,01/07/10,12/05/15,f,2,110,3,2,dog.jpg,0,car01.jpg,cat02.jpg,2.4207,0,1,24,01/07/10,12/05/15,f,2,111,3,3,dog.jpg,1,dog01.jpg,cat05.jpg,1.0406,1,1,14,01/07/10,12/05/15,f,2,112,3,4,dog.jpg,0,cat06.jpg,boat05.jpg,1.42,0,1,24,01/07/10,12/05/15,f,2,113,3,1,car.jpg,1,car02.jpg,cat05.jpg,1.5047,1,1,14,01/07/10,12/05/15,f,2,114,3,2,car.jpg,1,car09.jpg,boat04.jpg,0,0,0,04,01/07/10,12/05/15,f,2,115,3,3,car.jpg,1,car03.jpg,dog01.jpg,0,0,0,04,01/07/10,12/05/15,f,2,116,3,4,car.jpg,0,boat03.jpg,boat02.jpg,0,1,0,04,01/07/10,12/05/15,f,2,117,3,1,dog.jpg,1,car07.jpg,dog02.jpg,0,0,0,04,01/07/10,12/05/15,f,2,118,3,2,dog.jpg,1,dog10.jpg,boat02.jpg,1.6016,1,1,14,01/07/10,12/05/15,f,2,119,3,3,dog.jpg,1,cat07.jpg,dog06.jpg,2.0817,1,1,14,01/07/10,12/05/15,f,2,120,3,4,dog.jpg,0,car09.jpg,boat10.jpg,2.2298,0,1,24,01/07/10,12/05/15,f,2,121,3,1,car.jpg,1,car02.jpg,dog09.jpg,1.7882,1,1,14,01/07/10,12/05/15,f,2,122,3,2,car.jpg,1,car06.jpg,boat09.jpg,1.09,1,1,14,01/07/10,12/05/15,f,2,123,3,3,car.jpg,1,boat01.jpg,car02.jpg,0.95645,1,1,14,01/07/10,12/05/15,f,2,124,3,4,car.jpg,0,cat04.jpg,cat01.jpg,1.0915,0,1,24,01/07/10,12/05/15,f,2,125,3,1,dog.jpg,1,dog05.jpg,car09.jpg,0.88174,1,1,14,01/07/10,12/05/15,f,2,126,3,2,dog.jpg,1,boat04.jpg,dog07.jpg,1.1638,1,1,14,01/07/10,12/05/15,f,2,127,3,3,dog.jpg,1,cat02.jpg,dog06.jpg,0.80837,1,1,14,01/07/10,12/05/15,f,2,128,3,4,dog.jpg,1,dog01.jpg,car08.jpg,0,0,0,04,01/07/10,12/05/15,f,2,129,3,1,car.jpg,1,car03.jpg,dog04.jpg,1.3221,1,1,14,01/07/10,12/05/15,f,2,130,3,2,car.jpg,1,car10.jpg,dog05.jpg,1.088,1,1,14,01/07/10,12/05/15,f,2,131,3,3,car.jpg,1,cat08.jpg,car02.jpg,1.6543,1,1,14,01/07/10,12/05/15,f,2,132,3,4,car.jpg,1,car05.jpg,dog03.jpg,1.5443,1,1,14,01/07/10,12/05/15,f,2,133,3,1,dog.jpg,1,dog09.jpg,car01.jpg,1.1757,1,1,14,01/07/10,12/05/15,f,2,134,3,2,dog.jpg,1,dog01.jpg,car09.jpg,1.188,1,1,14,01/07/10,12/05/15,f,2,135,3,3,dog.jpg,1,dog06.jpg,car02.jpg,1.0168,1,1,14,01/07/10,12/05/15,f,2,136,3,4,dog.jpg,1,car08.jpg,dog03.jpg,0.94487,1,1,14,01/07/10,12/05/15,f,2,137,3,1,car.jpg,1,boat10.jpg,car02.jpg,2.9259,1,1,14,01/07/10,12/05/15,f,2,138,3,2,car.jpg,1,car10.jpg,dog07.jpg,1.4455,1,1,14,01/07/10,12/05/15,f,2,139,3,3,car.jpg,0,dog09.jpg,boat03.jpg,0.88187,0,1,24,01/07/10,12/05/15,f,2,140,3,4,car.jpg,0,cat01.jpg,cat04.jpg,1.6521,0,1,24,01/07/10,12/05/15,f,2,141,3,1,dog.jpg,1,dog07.jpg,cat09.jpg,1.2251,1,1,14,01/07/10,12/05/15,f,2,142,3,2,dog.jpg,1,dog01.jpg,cat01.jpg,1.2633,1,1,14,01/07/10,12/05/15,f,2,143,3,3,dog.jpg,1,dog09.jpg,car04.jpg,2.2558,1,1,14,01/07/10,12/05/15,f,2,144,3,4,dog.jpg,0,boat09.jpg,boat06.jpg,0,1,0,14,01/07/10,12/05/15,f,2,145,3,1,car.jpg,0,boat02.jpg,dog05.jpg,1.2107,0,1,24,01/07/10,12/05/15,f,2,146,3,2,car.jpg,0,boat03.jpg,dog03.jpg,0,1,0,04,01/07/10,12/05/15,f,2,147,3,3,car.jpg,0,cat04.jpg,dog04.jpg,1.556,0,1,24,01/07/10,12/05/15,f,2,148,3,4,car.jpg,1,car07.jpg,boat04.jpg,3.6347,1,1,14,01/07/10,12/05/15,f,2,149,3,1,dog.jpg,0,boat06.jpg,cat06.jpg,1.4186,0,1,24,01/07/10,12/05/15,f,2,150,3,2,dog.jpg,1,dog06.jpg,car04.jpg,1.5808,1,1,14,01/07/10,12/05/15,f,2,151,3,3,dog.jpg,0,car04.jpg,boat09.jpg,1.5427,0,1,24,01/07/10,12/05/15,f,2,152,3,4,dog.jpg,1,dog02.jpg,boat05.jpg,1.7864,1,1,14,01/07/10,12/05/15,f,2,153,3,1,car.jpg,1,car07.jpg,dog04.jpg,2.2409,1,1,14,01/07/10,12/05/15,f,2,154,3,2,car.jpg,1,cat06.jpg,car01.jpg,1.639,1,1,14,01/07/10,12/05/15,f,2,155,3,3,car.jpg,1,cat03.jpg,car10.jpg,1.3957,1,1,14,01/07/10,12/05/15,f,2,156,3,4,car.jpg,0,dog05.jpg,boat07.jpg,2.8291,0,1,24,01/07/10,12/05/15,f,2,157,3,1,dog.jpg,0,boat08.jpg,boat05.jpg,1.5314,0,1,24,01/07/10,12/05/15,f,2,158,3,2,dog.jpg,1,car04.jpg,dog08.jpg,0,0,0,04,01/07/10,12/05/15,f,2,159,3,3,dog.jpg,0,boat03.jpg,car02.jpg,0,1,0,04,01/07/10,12/05/15,f,2,160,3,4,dog.jpg,0,cat06.jpg,car09.jpg,2.0558,0,1,3