age,dob,date,gender,version,counter,block,trial,rule,target,Right,Left,rt,right answer,hit,no hits4,16/12/10,10/06/15,F,1,1,1,1,car.jpg,0,cat02.jpg,cat04.jpg,3.1342,0,1,24,16/12/10,10/06/15,F,1,2,1,2,car.jpg,1,boat02.jpg,car05.jpg,2.3169,1,1,14,16/12/10,10/06/15,F,1,3,1,3,car.jpg,1,car08.jpg,cat03.jpg,1.5935,1,1,14,16/12/10,10/06/15,F,1,4,1,4,car.jpg,1,car10.jpg,cat06.jpg,1.0784,1,1,14,16/12/10,10/06/15,F,1,5,1,1,car.jpg,1,boat08.jpg,car10.jpg,0.98096,1,1,14,16/12/10,10/06/15,F,1,6,1,2,car.jpg,1,boat09.jpg,car10.jpg,0.66353,1,1,14,16/12/10,10/06/15,F,1,7,1,3,car.jpg,1,cat04.jpg,car06.jpg,0.67318,1,1,14,16/12/10,10/06/15,F,1,8,1,4,car.jpg,1,boat03.jpg,car03.jpg,0.55154,1,1,14,16/12/10,10/06/15,F,1,9,1,1,car.jpg,0,cat06.jpg,boat07.jpg,0,1,0,04,16/12/10,10/06/15,F,1,10,1,2,car.jpg,0,boat01.jpg,cat09.jpg,1.984,0,1,24,16/12/10,10/06/15,F,1,11,1,3,car.jpg,1,cat01.jpg,car09.jpg,0.77317,1,1,14,16/12/10,10/06/15,F,1,12,1,4,car.jpg,0,cat04.jpg,cat05.jpg,1.3549,0,1,24,16/12/10,10/06/15,F,1,13,1,1,car.jpg,1,car10.jpg,boat06.jpg,0.73508,1,1,14,16/12/10,10/06/15,F,1,14,1,2,car.jpg,1,cat05.jpg,car10.jpg,0.94254,1,1,14,16/12/10,10/06/15,F,1,15,1,3,car.jpg,1,car02.jpg,boat08.jpg,0.58896,1,1,14,16/12/10,10/06/15,F,1,16,1,4,car.jpg,0,boat04.jpg,cat06.jpg,1.0679,0,1,24,16/12/10,10/06/15,F,1,17,1,1,car.jpg,1,cat01.jpg,car01.jpg,0.67202,1,1,14,16/12/10,10/06/15,F,1,18,1,2,car.jpg,0,boat07.jpg,boat06.jpg,1.42,0,1,24,16/12/10,10/06/15,F,1,19,1,3,car.jpg,0,cat04.jpg,boat02.jpg,1.3817,0,1,24,16/12/10,10/06/15,F,1,20,1,4,car.jpg,0,cat04.jpg,cat06.jpg,1.0026,0,1,24,16/12/10,10/06/15,F,1,21,1,1,car.jpg,0,boat08.jpg,boat04.jpg,0,1,0,04,16/12/10,10/06/15,F,1,22,1,2,car.jpg,0,boat10.jpg,boat02.jpg,1.0655,0,1,24,16/12/10,10/06/15,F,1,23,1,3,car.jpg,0,cat07.jpg,boat02.jpg,0.47743,0,1,24,16/12/10,10/06/15,F,1,24,1,4,car.jpg,1,car09.jpg,cat07.jpg,0.7723,1,1,14,16/12/10,10/06/15,F,1,25,1,1,car.jpg,0,boat04.jpg,cat05.jpg,0.9185,0,1,24,16/12/10,10/06/15,F,1,26,1,2,car.jpg,1,car02.jpg,cat01.jpg,1.2121,1,1,24,16/12/10,10/06/15,F,1,27,1,3,car.jpg,1,car10.jpg,boat01.jpg,0.95515,1,1,14,16/12/10,10/06/15,F,1,28,1,4,car.jpg,1,boat10.jpg,car10.jpg,2.0573,1,1,14,16/12/10,10/06/15,F,1,29,1,1,car.jpg,1,cat06.jpg,car02.jpg,0.62379,1,1,14,16/12/10,10/06/15,F,1,30,1,2,car.jpg,0,cat01.jpg,boat01.jpg,0.82196,0,1,34,16/12/10,10/06/15,F,1,31,1,3,car.jpg,0,cat02.jpg,boat01.jpg,0,1,0,04,16/12/10,10/06/15,F,1,32,1,4,car.jpg,1,cat09.jpg,car05.jpg,1.0175,1,1,14,16/12/10,10/06/15,F,1,33,1,1,car.jpg,1,boat04.jpg,car09.jpg,0.96693,1,1,14,16/12/10,10/06/15,F,1,34,1,2,car.jpg,1,car07.jpg,boat06.jpg,1.5316,1,1,14,16/12/10,10/06/15,F,1,35,1,3,car.jpg,0,boat07.jpg,cat02.jpg,0,1,0,04,16/12/10,10/06/15,F,1,36,1,4,car.jpg,0,cat09.jpg,cat10.jpg,0,1,0,04,16/12/10,10/06/15,F,1,37,1,1,car.jpg,1,car07.jpg,boat05.jpg,1.2117,1,1,14,16/12/10,10/06/15,F,1,38,1,2,car.jpg,1,boat02.jpg,car10.jpg,1.4695,1,1,14,16/12/10,10/06/15,F,1,39,1,3,car.jpg,1,cat09.jpg,car10.jpg,1.1632,1,1,14,16/12/10,10/06/15,F,1,40,1,4,car.jpg,1,cat07.jpg,car01.jpg,1.4949,1,1,14,16/12/10,10/06/15,F,1,41,2,1,dog.jpg,1,dog02.jpg,boat05.jpg,0.73449,1,1,14,16/12/10,10/06/15,F,1,42,2,2,dog.jpg,0,boat02.jpg,cat01.jpg,0,1,0,04,16/12/10,10/06/15,F,1,43,2,3,dog.jpg,0,cat09.jpg,cat01.jpg,0,1,0,04,16/12/10,10/06/15,F,1,44,2,4,dog.jpg,1,dog07.jpg,boat01.jpg,1.4694,1,1,14,16/12/10,10/06/15,F,1,45,2,1,dog.jpg,1,dog01.jpg,cat06.jpg,1.3946,1,1,24,16/12/10,10/06/15,F,1,46,2,2,dog.jpg,1,dog10.jpg,cat04.jpg,1.4438,1,1,14,16/12/10,10/06/15,F,1,47,2,3,dog.jpg,0,cat06.jpg,boat06.jpg,0,1,0,04,16/12/10,10/06/15,F,1,48,2,4,dog.jpg,0,boat10.jpg,boat04.jpg,0,1,0,04,16/12/10,10/06/15,F,1,49,2,1,dog.jpg,1,cat05.jpg,dog04.jpg,2.3979,1,1,14,16/12/10,10/06/15,F,1,50,2,2,dog.jpg,1,dog03.jpg,cat03.jpg,1.5437,1,1,14,16/12/10,10/06/15,F,1,51,2,3,dog.jpg,1,dog07.jpg,cat10.jpg,1.3861,1,1,14,16/12/10,10/06/15,F,1,52,2,4,dog.jpg,1,dog08.jpg,cat01.jpg,2.202,1,1,14,16/12/10,10/06/15,F,1,53,2,1,dog.jpg,0,cat04.jpg,cat08.jpg,0,1,0,04,16/12/10,10/06/15,F,1,54,2,2,dog.jpg,1,cat09.jpg,dog01.jpg,1.7986,1,1,14,16/12/10,10/06/15,F,1,55,2,3,dog.jpg,1,dog01.jpg,cat10.jpg,1.2996,1,1,14,16/12/10,10/06/15,F,1,56,2,4,dog.jpg,1,dog02.jpg,boat01.jpg,0.69736,1,1,14,16/12/10,10/06/15,F,1,57,2,1,dog.jpg,0,boat04.jpg,boat10.jpg,0,1,0,04,16/12/10,10/06/15,F,1,58,2,2,dog.jpg,1,dog01.jpg,cat07.jpg,1.4061,1,1,14,16/12/10,10/06/15,F,1,59,2,3,dog.jpg,1,boat08.jpg,dog10.jpg,0.94316,1,1,14,16/12/10,10/06/15,F,1,60,2,4,dog.jpg,1,dog06.jpg,cat04.jpg,1.6776,1,1,14,16/12/10,10/06/15,F,1,61,2,1,dog.jpg,0,boat02.jpg,boat08.jpg,0,1,0,04,16/12/10,10/06/15,F,1,62,2,2,dog.jpg,1,dog06.jpg,boat10.jpg,1.2725,1,1,14,16/12/10,10/06/15,F,1,63,2,3,dog.jpg,1,cat05.jpg,dog09.jpg,1.6293,1,1,14,16/12/10,10/06/15,F,1,64,2,4,dog.jpg,0,boat09.jpg,boat10.jpg,0,1,0,04,16/12/10,10/06/15,F,1,65,2,1,dog.jpg,0,cat03.jpg,cat06.jpg,1.5416,0,1,24,16/12/10,10/06/15,F,1,66,2,2,dog.jpg,0,boat03.jpg,cat06.jpg,0,1,0,04,16/12/10,10/06/15,F,1,67,2,3,dog.jpg,1,dog04.jpg,cat08.jpg,1.5181,1,1,14,16/12/10,10/06/15,F,1,68,2,4,dog.jpg,0,boat07.jpg,boat08.jpg,0,1,0,04,16/12/10,10/06/15,F,1,69,2,1,dog.jpg,1,dog08.jpg,boat03.jpg,1.1258,1,1,14,16/12/10,10/06/15,F,1,70,2,2,dog.jpg,0,cat01.jpg,boat06.jpg,0,1,0,04,16/12/10,10/06/15,F,1,71,2,3,dog.jpg,1,dog02.jpg,cat05.jpg,1.4323,1,1,14,16/12/10,10/06/15,F,1,72,2,4,dog.jpg,0,boat09.jpg,boat05.jpg,0,1,0,04,16/12/10,10/06/15,F,1,73,2,1,dog.jpg,1,cat04.jpg,dog03.jpg,1.0528,1,1,14,16/12/10,10/06/15,F,1,74,2,2,dog.jpg,0,boat07.jpg,cat06.jpg,0,1,0,04,16/12/10,10/06/15,F,1,75,2,3,dog.jpg,1,dog05.jpg,boat07.jpg,1.2247,1,1,14,16/12/10,10/06/15,F,1,76,2,4,dog.jpg,0,cat07.jpg,cat02.jpg,0,1,0,04,16/12/10,10/06/15,F,1,77,2,1,dog.jpg,1,dog05.jpg,cat01.jpg,1.6538,1,1,14,16/12/10,10/06/15,F,1,78,2,2,dog.jpg,1,cat09.jpg,dog08.jpg,0.97897,1,1,14,16/12/10,10/06/15,F,1,79,2,3,dog.jpg,0,boat10.jpg,cat09.jpg,0,1,0,04,16/12/10,10/06/15,F,1,80,2,4,dog.jpg,1,dog03.jpg,cat04.jpg,1.1148,1,1,14,16/12/10,10/06/15,F,1,81,3,1,car.jpg,1,car09.jpg,dog05.jpg,0.82228,1,1,14,16/12/10,10/06/15,F,1,82,3,2,car.jpg,1,cat04.jpg,car08.jpg,1.0419,1,1,14,16/12/10,10/06/15,F,1,83,3,3,car.jpg,1,dog06.jpg,car05.jpg,0.92081,1,1,14,16/12/10,10/06/15,F,1,84,3,4,car.jpg,1,car06.jpg,dog05.jpg,0.84664,1,1,24,16/12/10,10/06/15,F,1,85,3,1,dog.jpg,1,dog05.jpg,car03.jpg,1.4058,1,1,14,16/12/10,10/06/15,F,1,86,3,2,dog.jpg,0,cat05.jpg,cat02.jpg,0,1,0,04,16/12/10,10/06/15,F,1,87,3,3,dog.jpg,0,cat07.jpg,boat07.jpg,0,1,0,04,16/12/10,10/06/15,F,1,88,3,4,dog.jpg,0,car07.jpg,boat04.jpg,2.712,0,1,24,16/12/10,10/06/15,F,1,89,3,1,car.jpg,1,car02.jpg,dog07.jpg,1.0897,1,1,14,16/12/10,10/06/15,F,1,90,3,2,car.jpg,1,car10.jpg,boat06.jpg,2.02,1,1,14,16/12/10,10/06/15,F,1,91,3,3,car.jpg,1,car02.jpg,dog07.jpg,1.7042,1,1,14,16/12/10,10/06/15,F,1,92,3,4,car.jpg,0,boat06.jpg,cat05.jpg,0,1,0,04,16/12/10,10/06/15,F,1,93,3,1,dog.jpg,1,car07.jpg,dog06.jpg,2.1902,1,1,14,16/12/10,10/06/15,F,1,94,3,2,dog.jpg,1,car07.jpg,dog01.jpg,1.1674,1,1,14,16/12/10,10/06/15,F,1,95,3,3,dog.jpg,1,dog02.jpg,car05.jpg,2.6299,1,1,24,16/12/10,10/06/15,F,1,96,3,4,dog.jpg,0,boat09.jpg,car07.jpg,0,1,0,04,16/12/10,10/06/15,F,1,97,3,1,car.jpg,0,boat04.jpg,boat10.jpg,0,1,0,04,16/12/10,10/06/15,F,1,98,3,2,car.jpg,1,car01.jpg,dog04.jpg,1.078,1,1,14,16/12/10,10/06/15,F,1,99,3,3,car.jpg,1,car07.jpg,dog10.jpg,1.017,1,1,24,16/12/10,10/06/15,F,1,100,3,4,car.jpg,0,boat08.jpg,boat05.jpg,0,1,0,04,16/12/10,10/06/15,F,1,101,3,1,dog.jpg,1,car07.jpg,dog03.jpg,2.8509,1,1,14,16/12/10,10/06/15,F,1,102,3,2,dog.jpg,0,cat08.jpg,car05.jpg,0,1,0,04,16/12/10,10/06/15,F,1,103,3,3,dog.jpg,1,boat09.jpg,dog10.jpg,3.1801,1,1,14,16/12/10,10/06/15,F,1,104,3,4,dog.jpg,0,car03.jpg,boat04.jpg,0,1,0,04,16/12/10,10/06/15,F,1,105,3,1,car.jpg,0,cat01.jpg,cat03.jpg,0,1,0,04,16/12/10,10/06/15,F,1,106,3,2,car.jpg,1,dog08.jpg,car05.jpg,0,0,0,04,16/12/10,10/06/15,F,1,107,3,3,car.jpg,1,car10.jpg,boat04.jpg,0.77139,1,1,14,16/12/10,10/06/15,F,1,108,3,4,car.jpg,0,boat08.jpg,dog05.jpg,0,1,0,04,16/12/10,10/06/15,F,1,109,3,1,dog.jpg,1,dog10.jpg,car08.jpg,1.2738,1,1,14,16/12/10,10/06/15,F,1,110,3,2,dog.jpg,1,dog02.jpg,boat01.jpg,2.2167,1,1,14,16/12/10,10/06/15,F,1,111,3,3,dog.jpg,0,car04.jpg,boat03.jpg,0,1,0,04,16/12/10,10/06/15,F,1,112,3,4,dog.jpg,0,car09.jpg,boat06.jpg,0,1,0,04,16/12/10,10/06/15,F,1,113,3,1,car.jpg,1,car01.jpg,dog07.jpg,1.5307,1,1,24,16/12/10,10/06/15,F,1,114,3,2,car.jpg,0,dog02.jpg,cat02.jpg,0,1,0,04,16/12/10,10/06/15,F,1,115,3,3,car.jpg,0,cat07.jpg,dog10.jpg,0,1,0,04,16/12/10,10/06/15,F,1,116,3,4,car.jpg,0,boat07.jpg,cat05.jpg,0,1,0,04,16/12/10,10/06/15,F,1,117,3,1,dog.jpg,0,boat10.jpg,boat04.jpg,0,1,0,04,16/12/10,10/06/15,F,1,118,3,2,dog.jpg,1,car05.jpg,dog04.jpg,1.7243,1,1,24,16/12/10,10/06/15,F,1,119,3,3,dog.jpg,0,boat05.jpg,boat07.jpg,0,1,0,04,16/12/10,10/06/15,F,1,120,3,4,dog.jpg,1,car09.jpg,dog07.jpg,1.0895,1,1,14,16/12/10,10/06/15,F,1,121,3,1,car.jpg,1,dog02.jpg,car09.jpg,0,0,0,04,16/12/10,10/06/15,F,1,122,3,2,car.jpg,0,boat06.jpg,dog06.jpg,0,1,0,04,16/12/10,10/06/15,F,1,123,3,3,car.jpg,0,dog08.jpg,boat06.jpg,0,1,0,04,16/12/10,10/06/15,F,1,124,3,4,car.jpg,1,car02.jpg,dog02.jpg,0.90544,1,1,14,16/12/10,10/06/15,F,1,125,3,1,dog.jpg,0,boat09.jpg,car10.jpg,0.9422,0,1,24,16/12/10,10/06/15,F,1,126,3,2,dog.jpg,1,dog07.jpg,boat06.jpg,2.9652,1,1,14,16/12/10,10/06/15,F,1,127,3,3,dog.jpg,1,dog10.jpg,car02.jpg,2.1161,1,1,14,16/12/10,10/06/15,F,1,128,3,4,dog.jpg,0,boat01.jpg,car06.jpg,0,1,0,04,16/12/10,10/06/15,F,1,129,3,1,car.jpg,1,dog04.jpg,car04.jpg,2.1301,1,1,14,16/12/10,10/06/15,F,1,130,3,2,car.jpg,1,car07.jpg,cat04.jpg,1.1393,1,1,14,16/12/10,10/06/15,F,1,131,3,3,car.jpg,0,dog01.jpg,cat10.jpg,0,1,0,04,16/12/10,10/06/15,F,1,132,3,4,car.jpg,1,dog07.jpg,car04.jpg,1.4949,1,1,14,16/12/10,10/06/15,F,1,133,3,1,dog.jpg,1,boat03.jpg,dog10.jpg,2.8764,1,1,14,16/12/10,10/06/15,F,1,134,3,2,dog.jpg,1,car08.jpg,dog04.jpg,1.6662,1,1,14,16/12/10,10/06/15,F,1,135,3,3,dog.jpg,0,car03.jpg,cat02.jpg,0,1,0,04,16/12/10,10/06/15,F,1,136,3,4,dog.jpg,1,cat06.jpg,dog07.jpg,3.022,1,1,14,16/12/10,10/06/15,F,1,137,3,1,car.jpg,1,car04.jpg,cat08.jpg,2.3352,1,1,14,16/12/10,10/06/15,F,1,138,3,2,car.jpg,1,car05.jpg,boat08.jpg,2.2647,1,1,14,16/12/10,10/06/15,F,1,139,3,3,car.jpg,0,dog10.jpg,cat02.jpg,0,1,0,04,16/12/10,10/06/15,F,1,140,3,4,car.jpg,0,cat03.jpg,boat09.jpg,0,1,0,04,16/12/10,10/06/15,F,1,141,3,1,dog.jpg,0,car07.jpg,boat03.jpg,0,1,0,04,16/12/10,10/06/15,F,1,142,3,2,dog.jpg,0,cat09.jpg,boat03.jpg,0,1,0,04,16/12/10,10/06/15,F,1,143,3,3,dog.jpg,1,car03.jpg,dog08.jpg,1.6036,1,1,14,16/12/10,10/06/15,F,1,144,3,4,dog.jpg,1,cat02.jpg,dog06.jpg,1.6278,1,1,14,16/12/10,10/06/15,F,1,145,3,1,car.jpg,0,cat08.jpg,cat01.jpg,0,1,0,04,16/12/10,10/06/15,F,1,146,3,2,car.jpg,1,dog06.jpg,car01.jpg,1.8236,1,1,14,16/12/10,10/06/15,F,1,147,3,3,car.jpg,1,dog08.jpg,car02.jpg,1.5787,1,1,14,16/12/10,10/06/15,F,1,148,3,4,car.jpg,1,car03.jpg,boat09.jpg,1.1393,1,1,14,16/12/10,10/06/15,F,1,149,3,1,dog.jpg,0,cat04.jpg,boat04.jpg,0,1,0,04,16/12/10,10/06/15,F,1,150,3,2,dog.jpg,1,dog09.jpg,car06.jpg,1.1137,1,1,14,16/12/10,10/06/15,F,1,151,3,3,dog.jpg,1,dog02.jpg,boat08.jpg,1.5671,1,1,14,16/12/10,10/06/15,F,1,152,3,4,dog.jpg,1,dog05.jpg,cat01.jpg,1.0535,1,1,14,16/12/10,10/06/15,F,1,153,3,1,car.jpg,0,boat08.jpg,dog10.jpg,0,1,0,04,16/12/10,10/06/15,F,1,154,3,2,car.jpg,1,car04.jpg,dog03.jpg,0.6733,1,1,14,16/12/10,10/06/15,F,1,155,3,3,car.jpg,0,boat01.jpg,boat07.jpg,0,1,0,04,16/12/10,10/06/15,F,1,156,3,4,car.jpg,1,car10.jpg,cat05.jpg,0.73562,1,1,14,16/12/10,10/06/15,F,1,157,3,1,dog.jpg,1,dog05.jpg,boat02.jpg,0.0016323,1,1,24,16/12/10,10/06/15,F,1,158,3,2,dog.jpg,1,dog02.jpg,car07.jpg,1.1625,1,1,24,16/12/10,10/06/15,F,1,159,3,3,dog.jpg,1,dog06.jpg,car09.jpg,1.0888,1,1,24,16/12/10,10/06/15,F,1,160,3,4,dog.jpg,1,dog07.jpg,cat04.jpg,1.2247,1,1,2