age,dob,date,gender,version,counter,block,trial,rule,target,Right,Left,rt,right answer,hit,no hits4,31/10/10,10/06/15,f,2,1,1,1,dog.jpg,0,cat01.jpg,boat10.jpg,0,1,0,14,31/10/10,10/06/15,f,2,2,1,2,dog.jpg,1,cat10.jpg,dog06.jpg,0.0020795,1,1,24,31/10/10,10/06/15,f,2,3,1,3,dog.jpg,0,cat05.jpg,cat03.jpg,0,1,0,04,31/10/10,10/06/15,f,2,4,1,4,dog.jpg,1,dog09.jpg,cat05.jpg,0,0,0,04,31/10/10,10/06/15,f,2,5,1,1,dog.jpg,0,cat06.jpg,boat03.jpg,0,1,0,04,31/10/10,10/06/15,f,2,6,1,2,dog.jpg,1,cat09.jpg,dog04.jpg,0,0,0,14,31/10/10,10/06/15,f,2,7,1,3,dog.jpg,1,cat01.jpg,dog09.jpg,0,0,0,14,31/10/10,10/06/15,f,2,8,1,4,dog.jpg,1,boat09.jpg,dog10.jpg,0.001788,1,1,24,31/10/10,10/06/15,f,2,9,1,1,dog.jpg,1,dog10.jpg,boat08.jpg,0,0,0,14,31/10/10,10/06/15,f,2,10,1,2,dog.jpg,0,boat05.jpg,cat09.jpg,0,1,0,14,31/10/10,10/06/15,f,2,11,1,3,dog.jpg,1,cat04.jpg,dog01.jpg,0,0,0,14,31/10/10,10/06/15,f,2,12,1,4,dog.jpg,1,cat10.jpg,dog03.jpg,0.0017714,1,1,24,31/10/10,10/06/15,f,2,13,1,1,dog.jpg,1,cat01.jpg,dog04.jpg,1.983,1,1,24,31/10/10,10/06/15,f,2,14,1,2,dog.jpg,0,cat04.jpg,cat03.jpg,2.8106,0,1,24,31/10/10,10/06/15,f,2,15,1,3,dog.jpg,0,cat09.jpg,boat10.jpg,0,1,0,04,31/10/10,10/06/15,f,2,16,1,4,dog.jpg,0,cat06.jpg,boat02.jpg,0,1,0,04,31/10/10,10/06/15,f,2,17,1,1,dog.jpg,0,boat08.jpg,cat05.jpg,0,1,0,04,31/10/10,10/06/15,f,2,18,1,2,dog.jpg,0,cat09.jpg,cat01.jpg,0,1,0,04,31/10/10,10/06/15,f,2,19,1,3,dog.jpg,1,cat07.jpg,dog03.jpg,0,0,0,14,31/10/10,10/06/15,f,2,20,1,4,dog.jpg,0,boat02.jpg,boat06.jpg,0.0016396,0,1,24,31/10/10,10/06/15,f,2,21,1,1,dog.jpg,0,cat02.jpg,boat02.jpg,1.9658,0,1,24,31/10/10,10/06/15,f,2,22,1,2,dog.jpg,0,boat07.jpg,cat02.jpg,0,1,0,04,31/10/10,10/06/15,f,2,23,1,3,dog.jpg,1,cat04.jpg,dog03.jpg,0,0,0,14,31/10/10,10/06/15,f,2,24,1,4,dog.jpg,1,dog07.jpg,cat05.jpg,0.0013087,1,1,14,31/10/10,10/06/15,f,2,25,1,1,dog.jpg,1,boat02.jpg,dog07.jpg,0,0,0,04,31/10/10,10/06/15,f,2,26,1,2,dog.jpg,0,boat08.jpg,cat02.jpg,0.82812,0,1,24,31/10/10,10/06/15,f,2,27,1,3,dog.jpg,1,dog08.jpg,cat07.jpg,1.9616,1,1,14,31/10/10,10/06/15,f,2,28,1,4,dog.jpg,1,dog06.jpg,boat07.jpg,1.7748,1,1,14,31/10/10,10/06/15,f,2,29,1,1,dog.jpg,1,dog04.jpg,cat03.jpg,0.91265,1,1,14,31/10/10,10/06/15,f,2,30,1,2,dog.jpg,1,dog07.jpg,boat08.jpg,1.0729,1,1,14,31/10/10,10/06/15,f,2,31,1,3,dog.jpg,1,boat08.jpg,dog10.jpg,0.866,1,1,14,31/10/10,10/06/15,f,2,32,1,4,dog.jpg,0,cat08.jpg,boat05.jpg,0,1,0,04,31/10/10,10/06/15,f,2,33,1,1,dog.jpg,1,cat10.jpg,dog07.jpg,1.193,1,1,14,31/10/10,10/06/15,f,2,34,1,2,dog.jpg,1,cat03.jpg,dog02.jpg,0.8543,1,1,14,31/10/10,10/06/15,f,2,35,1,3,dog.jpg,1,dog01.jpg,boat09.jpg,0.93969,1,1,14,31/10/10,10/06/15,f,2,36,1,4,dog.jpg,0,boat07.jpg,boat05.jpg,0,1,0,04,31/10/10,10/06/15,f,2,37,1,1,dog.jpg,1,dog01.jpg,cat04.jpg,0.81707,1,1,14,31/10/10,10/06/15,f,2,38,1,2,dog.jpg,1,boat02.jpg,dog05.jpg,0.68423,1,1,14,31/10/10,10/06/15,f,2,39,1,3,dog.jpg,1,dog09.jpg,boat03.jpg,0.83931,1,1,14,31/10/10,10/06/15,f,2,40,1,4,dog.jpg,0,boat07.jpg,boat04.jpg,0,1,0,04,31/10/10,10/06/15,f,2,41,2,1,car.jpg,1,car10.jpg,cat08.jpg,1.8224,1,1,14,31/10/10,10/06/15,f,2,42,2,2,car.jpg,0,boat06.jpg,boat10.jpg,0,1,0,04,31/10/10,10/06/15,f,2,43,2,3,car.jpg,1,boat03.jpg,car08.jpg,1.4447,1,1,14,31/10/10,10/06/15,f,2,44,2,4,car.jpg,0,boat07.jpg,cat01.jpg,0,1,0,04,31/10/10,10/06/15,f,2,45,2,1,car.jpg,1,cat02.jpg,car06.jpg,1.4497,1,1,14,31/10/10,10/06/15,f,2,46,2,2,car.jpg,0,boat06.jpg,cat05.jpg,0,1,0,04,31/10/10,10/06/15,f,2,47,2,3,car.jpg,0,boat06.jpg,cat06.jpg,0,1,0,04,31/10/10,10/06/15,f,2,48,2,4,car.jpg,1,boat04.jpg,car03.jpg,1.012,1,1,14,31/10/10,10/06/15,f,2,49,2,1,car.jpg,1,car01.jpg,boat04.jpg,1.4427,1,1,14,31/10/10,10/06/15,f,2,50,2,2,car.jpg,0,boat05.jpg,cat09.jpg,0,1,0,04,31/10/10,10/06/15,f,2,51,2,3,car.jpg,1,boat01.jpg,car05.jpg,1.1827,1,1,14,31/10/10,10/06/15,f,2,52,2,4,car.jpg,0,boat01.jpg,cat04.jpg,0,1,0,04,31/10/10,10/06/15,f,2,53,2,1,car.jpg,0,cat03.jpg,cat08.jpg,0,1,0,04,31/10/10,10/06/15,f,2,54,2,2,car.jpg,1,car03.jpg,boat01.jpg,1.3142,1,1,14,31/10/10,10/06/15,f,2,55,2,3,car.jpg,0,boat08.jpg,boat05.jpg,0,1,0,04,31/10/10,10/06/15,f,2,56,2,4,car.jpg,0,boat02.jpg,cat08.jpg,0,1,0,04,31/10/10,10/06/15,f,2,57,2,1,car.jpg,1,car10.jpg,cat09.jpg,1.1344,1,1,14,31/10/10,10/06/15,f,2,58,2,2,car.jpg,0,boat09.jpg,cat01.jpg,0,1,0,04,31/10/10,10/06/15,f,2,59,2,3,car.jpg,1,cat08.jpg,car05.jpg,0.85508,1,1,14,31/10/10,10/06/15,f,2,60,2,4,car.jpg,1,car02.jpg,boat08.jpg,2.0849,1,1,14,31/10/10,10/06/15,f,2,61,2,1,car.jpg,0,boat04.jpg,boat09.jpg,0,1,0,04,31/10/10,10/06/15,f,2,62,2,2,car.jpg,1,boat05.jpg,car08.jpg,2.2545,1,1,14,31/10/10,10/06/15,f,2,63,2,3,car.jpg,1,car07.jpg,cat06.jpg,2.0021,1,1,14,31/10/10,10/06/15,f,2,64,2,4,car.jpg,1,car01.jpg,boat03.jpg,2.2161,1,1,14,31/10/10,10/06/15,f,2,65,2,1,car.jpg,1,boat08.jpg,car08.jpg,1.7492,1,1,14,31/10/10,10/06/15,f,2,66,2,2,car.jpg,1,car05.jpg,cat08.jpg,0.98551,1,1,14,31/10/10,10/06/15,f,2,67,2,3,car.jpg,1,car04.jpg,boat07.jpg,0.99774,1,1,14,31/10/10,10/06/15,f,2,68,2,4,car.jpg,0,cat03.jpg,boat08.jpg,0,1,0,04,31/10/10,10/06/15,f,2,69,2,1,car.jpg,0,boat01.jpg,boat05.jpg,0,1,0,04,31/10/10,10/06/15,f,2,70,2,2,car.jpg,1,car09.jpg,boat03.jpg,0,0,0,04,31/10/10,10/06/15,f,2,71,2,3,car.jpg,1,boat02.jpg,car07.jpg,0,0,0,04,31/10/10,10/06/15,f,2,72,2,4,car.jpg,1,cat06.jpg,car08.jpg,2.0411,1,1,14,31/10/10,10/06/15,f,2,73,2,1,car.jpg,0,cat03.jpg,cat05.jpg,0,1,0,04,31/10/10,10/06/15,f,2,74,2,2,car.jpg,1,boat01.jpg,car06.jpg,1.7013,1,1,14,31/10/10,10/06/15,f,2,75,2,3,car.jpg,0,boat05.jpg,cat02.jpg,0,1,0,04,31/10/10,10/06/15,f,2,76,2,4,car.jpg,1,cat10.jpg,car04.jpg,0.90868,1,1,14,31/10/10,10/06/15,f,2,77,2,1,car.jpg,1,cat10.jpg,car03.jpg,3.7672,1,1,14,31/10/10,10/06/15,f,2,78,2,2,car.jpg,0,cat07.jpg,cat06.jpg,0,1,0,04,31/10/10,10/06/15,f,2,79,2,3,car.jpg,1,car10.jpg,cat06.jpg,0.78373,1,1,14,31/10/10,10/06/15,f,2,80,2,4,car.jpg,1,car02.jpg,cat05.jpg,0.95697,1,1,14,31/10/10,10/06/15,f,2,81,3,1,car.jpg,0,dog06.jpg,boat08.jpg,0,1,0,04,31/10/10,10/06/15,f,2,82,3,2,car.jpg,0,boat05.jpg,dog06.jpg,0,1,0,04,31/10/10,10/06/15,f,2,83,3,3,car.jpg,0,boat03.jpg,cat03.jpg,0,1,0,04,31/10/10,10/06/15,f,2,84,3,4,car.jpg,1,car10.jpg,boat03.jpg,2.0821,1,1,14,31/10/10,10/06/15,f,2,85,3,1,dog.jpg,1,car10.jpg,dog09.jpg,1.4458,1,1,24,31/10/10,10/06/15,f,2,86,3,2,dog.jpg,0,car01.jpg,cat04.jpg,0,1,0,04,31/10/10,10/06/15,f,2,87,3,3,dog.jpg,1,boat10.jpg,dog06.jpg,1.3231,1,1,14,31/10/10,10/06/15,f,2,88,3,4,dog.jpg,0,car09.jpg,cat06.jpg,0,1,0,04,31/10/10,10/06/15,f,2,89,3,1,car.jpg,0,boat08.jpg,dog09.jpg,0.89434,0,1,24,31/10/10,10/06/15,f,2,90,3,2,car.jpg,1,dog07.jpg,car04.jpg,0.95723,1,1,14,31/10/10,10/06/15,f,2,91,3,3,car.jpg,0,cat05.jpg,dog09.jpg,0,1,0,04,31/10/10,10/06/15,f,2,92,3,4,car.jpg,1,car04.jpg,dog05.jpg,1.9205,1,1,14,31/10/10,10/06/15,f,2,93,3,1,dog.jpg,0,boat07.jpg,boat03.jpg,0,1,0,04,31/10/10,10/06/15,f,2,94,3,2,dog.jpg,0,car08.jpg,cat05.jpg,0,1,0,04,31/10/10,10/06/15,f,2,95,3,3,dog.jpg,1,car02.jpg,dog05.jpg,0,0,0,04,31/10/10,10/06/15,f,2,96,3,4,dog.jpg,1,boat10.jpg,dog03.jpg,0.82133,1,1,24,31/10/10,10/06/15,f,2,97,3,1,car.jpg,1,car08.jpg,dog08.jpg,1.8022,1,1,14,31/10/10,10/06/15,f,2,98,3,2,car.jpg,1,boat10.jpg,car04.jpg,2.3376,1,1,14,31/10/10,10/06/15,f,2,99,3,3,car.jpg,1,car04.jpg,dog08.jpg,2.532,1,1,14,31/10/10,10/06/15,f,2,100,3,4,car.jpg,1,car06.jpg,dog01.jpg,2.5691,1,1,14,31/10/10,10/06/15,f,2,101,3,1,dog.jpg,0,cat08.jpg,cat09.jpg,0,1,0,04,31/10/10,10/06/15,f,2,102,3,2,dog.jpg,1,car03.jpg,dog04.jpg,0.95487,1,1,14,31/10/10,10/06/15,f,2,103,3,3,dog.jpg,0,boat07.jpg,car04.jpg,0,1,0,04,31/10/10,10/06/15,f,2,104,3,4,dog.jpg,1,dog05.jpg,car10.jpg,2.5592,1,1,14,31/10/10,10/06/15,f,2,105,3,1,car.jpg,1,dog02.jpg,car08.jpg,1.4077,1,1,14,31/10/10,10/06/15,f,2,106,3,2,car.jpg,1,boat03.jpg,car05.jpg,1.5877,1,1,14,31/10/10,10/06/15,f,2,107,3,3,car.jpg,1,car02.jpg,dog06.jpg,1.1045,1,1,14,31/10/10,10/06/15,f,2,108,3,4,car.jpg,1,car09.jpg,dog05.jpg,1.3825,1,1,14,31/10/10,10/06/15,f,2,109,3,1,dog.jpg,1,cat03.jpg,dog07.jpg,3.5731,1,1,14,31/10/10,10/06/15,f,2,110,3,2,dog.jpg,0,cat05.jpg,boat05.jpg,0,1,0,04,31/10/10,10/06/15,f,2,111,3,3,dog.jpg,1,dog03.jpg,boat02.jpg,0.50188,1,1,24,31/10/10,10/06/15,f,2,112,3,4,dog.jpg,0,cat05.jpg,boat09.jpg,0,1,0,04,31/10/10,10/06/15,f,2,113,3,1,car.jpg,1,cat10.jpg,car08.jpg,0,0,0,04,31/10/10,10/06/15,f,2,114,3,2,car.jpg,0,cat09.jpg,dog02.jpg,0,1,0,04,31/10/10,10/06/15,f,2,115,3,3,car.jpg,0,dog03.jpg,cat01.jpg,0,1,0,04,31/10/10,10/06/15,f,2,116,3,4,car.jpg,1,cat03.jpg,car06.jpg,0.86881,1,1,14,31/10/10,10/06/15,f,2,117,3,1,dog.jpg,1,dog04.jpg,car08.jpg,1.0267,1,1,14,31/10/10,10/06/15,f,2,118,3,2,dog.jpg,1,car09.jpg,dog01.jpg,1.3277,1,1,14,31/10/10,10/06/15,f,2,119,3,3,dog.jpg,1,cat01.jpg,dog09.jpg,1.2058,1,1,14,31/10/10,10/06/15,f,2,120,3,4,dog.jpg,0,car04.jpg,cat07.jpg,0,1,0,04,31/10/10,10/06/15,f,2,121,3,1,car.jpg,0,boat04.jpg,boat02.jpg,0,1,0,04,31/10/10,10/06/15,f,2,122,3,2,car.jpg,1,car02.jpg,boat05.jpg,1.763,1,1,14,31/10/10,10/06/15,f,2,123,3,3,car.jpg,0,cat10.jpg,cat07.jpg,0,1,0,04,31/10/10,10/06/15,f,2,124,3,4,car.jpg,0,boat02.jpg,cat06.jpg,0,1,0,04,31/10/10,10/06/15,f,2,125,3,1,dog.jpg,1,car04.jpg,dog04.jpg,0.68379,1,1,24,31/10/10,10/06/15,f,2,126,3,2,dog.jpg,1,dog10.jpg,car04.jpg,0.57586,1,1,14,31/10/10,10/06/15,f,2,127,3,3,dog.jpg,1,dog01.jpg,cat06.jpg,0.81599,1,1,14,31/10/10,10/06/15,f,2,128,3,4,dog.jpg,1,dog06.jpg,car06.jpg,0.73011,1,1,14,31/10/10,10/06/15,f,2,129,3,1,car.jpg,1,car06.jpg,boat03.jpg,1.2182,1,1,24,31/10/10,10/06/15,f,2,130,3,2,car.jpg,1,car09.jpg,dog07.jpg,0.97472,1,1,24,31/10/10,10/06/15,f,2,131,3,3,car.jpg,0,dog08.jpg,boat07.jpg,0.52613,0,1,24,31/10/10,10/06/15,f,2,132,3,4,car.jpg,0,cat06.jpg,dog09.jpg,1.6225,0,1,24,31/10/10,10/06/15,f,2,133,3,1,dog.jpg,1,boat07.jpg,dog02.jpg,0,0,0,04,31/10/10,10/06/15,f,2,134,3,2,dog.jpg,0,boat04.jpg,boat10.jpg,0,1,0,04,31/10/10,10/06/15,f,2,135,3,3,dog.jpg,1,dog03.jpg,boat07.jpg,1.5298,1,1,14,31/10/10,10/06/15,f,2,136,3,4,dog.jpg,0,car10.jpg,boat05.jpg,1.5554,0,1,24,31/10/10,10/06/15,f,2,137,3,1,car.jpg,1,car10.jpg,dog02.jpg,0.80447,1,1,24,31/10/10,10/06/15,f,2,138,3,2,car.jpg,0,dog06.jpg,cat04.jpg,0,1,0,04,31/10/10,10/06/15,f,2,139,3,3,car.jpg,1,car04.jpg,cat05.jpg,1.9241,1,1,24,31/10/10,10/06/15,f,2,140,3,4,car.jpg,0,boat04.jpg,boat09.jpg,0,1,0,04,31/10/10,10/06/15,f,2,141,3,1,dog.jpg,0,car03.jpg,boat04.jpg,0,1,0,04,31/10/10,10/06/15,f,2,142,3,2,dog.jpg,1,dog06.jpg,cat04.jpg,0,0,0,04,31/10/10,10/06/15,f,2,143,3,3,dog.jpg,1,car01.jpg,dog06.jpg,2.6985,1,1,14,31/10/10,10/06/15,f,2,144,3,4,dog.jpg,1,dog03.jpg,cat10.jpg,0,0,0,04,31/10/10,10/06/15,f,2,145,3,1,car.jpg,1,car05.jpg,dog10.jpg,1.0474,1,1,14,31/10/10,10/06/15,f,2,146,3,2,car.jpg,1,car06.jpg,boat05.jpg,1.4131,1,1,14,31/10/10,10/06/15,f,2,147,3,3,car.jpg,1,car08.jpg,dog10.jpg,2.9249,1,1,14,31/10/10,10/06/15,f,2,148,3,4,car.jpg,1,dog08.jpg,car03.jpg,1.1028,1,1,14,31/10/10,10/06/15,f,2,149,3,1,dog.jpg,1,car02.jpg,dog06.jpg,0.35523,1,1,14,31/10/10,10/06/15,f,2,150,3,2,dog.jpg,0,car04.jpg,cat07.jpg,0.45368,0,1,24,31/10/10,10/06/15,f,2,151,3,3,dog.jpg,0,car08.jpg,cat01.jpg,0,1,0,04,31/10/10,10/06/15,f,2,152,3,4,dog.jpg,1,cat07.jpg,dog04.jpg,0.70779,1,1,14,31/10/10,10/06/15,f,2,153,3,1,car.jpg,0,cat07.jpg,boat04.jpg,0.68589,0,1,24,31/10/10,10/06/15,f,2,154,3,2,car.jpg,1,car08.jpg,boat06.jpg,0.89399,1,1,24,31/10/10,10/06/15,f,2,155,3,3,car.jpg,1,car07.jpg,dog06.jpg,0.95627,1,1,14,31/10/10,10/06/15,f,2,156,3,4,car.jpg,0,boat06.jpg,dog03.jpg,0.71042,0,1,24,31/10/10,10/06/15,f,2,157,3,1,dog.jpg,0,cat06.jpg,car03.jpg,0,1,0,14,31/10/10,10/06/15,f,2,158,3,2,dog.jpg,0,car04.jpg,cat05.jpg,0,1,0,04,31/10/10,10/06/15,f,2,159,3,3,dog.jpg,1,dog08.jpg,car10.jpg,1.3236,1,1,24,31/10/10,10/06/15,f,2,160,3,4,dog.jpg,1,car03.jpg,dog02.jpg,1.1378,1,1,1