ID, Age,DOB,Gender,Date,TrialIndex,Cue,Modality,Trial,TargetExist,TargetName,TaskSwitch,ModalitySwitch,Correct,RT,noHits
ME20,6,29-DEC-2010,M,03-Mar-2017,1,tree,0,9,1,tree09.wav,0,0,1,1.4708,1
ME20,6,29-DEC-2010,M,03-Mar-2017,2,music,1,0,0,tree07.png,1,1,1,0,0
ME20,6,29-DEC-2010,M,03-Mar-2017,3,music,0,6,1,music06.wav,0,1,1,1.1795,1
ME20,6,29-DEC-2010,M,03-Mar-2017,4,music,1,0,0,tree10.png,0,1,1,0,0
ME20,6,29-DEC-2010,M,03-Mar-2017,5,music,0,5,1,music05.wav,0,1,1,1.5809,0
ME20,6,29-DEC-2010,M,03-Mar-2017,6,tree,0,2,1,tree02.wav,1,0,1,2.5497,1
ME20,6,29-DEC-2010,M,03-Mar-2017,7,tree,1,0,0,music03.png,0,1,1,0,0
ME20,6,29-DEC-2010,M,03-Mar-2017,8,tree,1,1,1,tree01.png,0,0,1,1.4414,1
ME20,6,29-DEC-2010,M,03-Mar-2017,9,tree,0,0,0,music07.wav,0,1,1,0,0
ME20,6,29-DEC-2010,M,03-Mar-2017,10,music,1,0,0,tree03.png,1,1,1,0,0
ME20,6,29-DEC-2010,M,03-Mar-2017,11,music,1,0,0,tree07.png,0,0,1,0,0
ME20,6,29-DEC-2010,M,03-Mar-2017,12,music,0,6,1,music06.wav,0,1,1,1.0753,1
ME20,6,29-DEC-2010,M,03-Mar-2017,13,music,1,0,0,tree07.png,0,1,1,0,0
ME20,6,29-DEC-2010,M,03-Mar-2017,14,tree,1,2,1,tree02.png,1,0,1,1.5491,0
ME20,6,29-DEC-2010,M,03-Mar-2017,15,tree,0,2,1,tree02.wav,0,1,1,3.0376,1
ME20,6,29-DEC-2010,M,03-Mar-2017,16,music,1,4,1,music04.png,1,1,1,2.0788,1
ME20,6,29-DEC-2010,M,03-Mar-2017,17,tree,1,0,0,music01.png,1,0,1,0,0
ME20,6,29-DEC-2010,M,03-Mar-2017,18,tree,0,7,1,tree07.wav,0,1,1,0.96701,1
ME20,6,29-DEC-2010,M,03-Mar-2017,19,music,1,0,0,tree03.png,1,1,1,0,0
ME20,6,29-DEC-2010,M,03-Mar-2017,20,tree,1,4,1,tree04.png,1,0,1,1.359,1
ME20,6,29-DEC-2010,M,03-Mar-2017,21,music,1,10,1,music10.png,1,0,1,1.5489,0
ME20,6,29-DEC-2010,M,03-Mar-2017,22,tree,1,3,1,tree03.png,1,0,1,3.3792,1
ME20,6,29-DEC-2010,M,03-Mar-2017,23,music,0,1,1,music01.wav,1,1,1,1.4042,1
ME20,6,29-DEC-2010,M,03-Mar-2017,24,music,0,0,0,tree03.wav,0,0,1,0,0
ME20,6,29-DEC-2010,M,03-Mar-2017,25,tree,1,9,1,tree09.png,1,1,1,1.099,1
ME20,6,29-DEC-2010,M,03-Mar-2017,26,music,1,6,1,music06.png,1,0,1,1.0415,1
ME20,6,29-DEC-2010,M,03-Mar-2017,27,tree,0,1,1,tree01.wav,1,1,1,1.4894,1
ME20,6,29-DEC-2010,M,03-Mar-2017,28,tree,0,2,1,tree02.wav,0,0,1,1.1797,1
ME20,6,29-DEC-2010,M,03-Mar-2017,29,tree,0,8,1,tree08.wav,0,0,1,1.0852,1
ME20,6,29-DEC-2010,M,03-Mar-2017,30,tree,1,0,0,music07.png,0,1,1,0,0
ME20,6,29-DEC-2010,M,03-Mar-2017,31,tree,1,8,1,tree08.png,0,0,1,1.4881,1
ME20,6,29-DEC-2010,M,03-Mar-2017,32,tree,0,0,0,music09.wav,0,1,1,0,0
ME20,6,29-DEC-2010,M,03-Mar-2017,33,tree,1,10,1,tree10.png,0,1,1,1.0044,1
ME20,6,29-DEC-2010,M,03-Mar-2017,34,music,0,0,0,tree04.wav,1,1,1,0,0
ME20,6,29-DEC-2010,M,03-Mar-2017,35,music,1,1,1,music01.png,0,1,1,1.5839,1
ME20,6,29-DEC-2010,M,03-Mar-2017,36,music,0,6,1,music06.wav,0,1,1,1.5459,1
ME20,6,29-DEC-2010,M,03-Mar-2017,37,tree,1,4,1,tree04.png,1,1,1,1.441,1
ME20,6,29-DEC-2010,M,03-Mar-2017,38,tree,0,0,0,music08.wav,0,1,1,0,0
ME20,6,29-DEC-2010,M,03-Mar-2017,39,music,1,0,0,tree07.png,1,1,1,0,0
ME20,6,29-DEC-2010,M,03-Mar-2017,40,tree,1,0,0,music01.png,1,0,1,0,0
ME20,6,29-DEC-2010,M,03-Mar-2017,41,music,0,2,1,music02.wav,1,1,1,1.4747,1
ME20,6,29-DEC-2010,M,03-Mar-2017,42,tree,1,0,0,music07.png,1,1,1,0,0
ME20,6,29-DEC-2010,M,03-Mar-2017,43,tree,1,1,1,tree01.png,0,0,1,1.5749,1
ME20,6,29-DEC-2010,M,03-Mar-2017,44,tree,0,5,1,tree05.wav,0,1,1,3.3438,1
ME20,6,29-DEC-2010,M,03-Mar-2017,45,music,1,5,1,music05.png,1,1,1,1.3734,1
ME20,6,29-DEC-2010,M,03-Mar-2017,46,music,0,4,1,music04.wav,0,1,0,0,0
ME20,6,29-DEC-2010,M,03-Mar-2017,47,music,0,9,1,music09.wav,0,0,1,1.2152,1
ME20,6,29-DEC-2010,M,03-Mar-2017,48,music,1,3,1,music03.png,0,1,1,0.8742,1
ME20,6,29-DEC-2010,M,03-Mar-2017,49,tree,1,0,0,music04.png,1,0,1,0,0
ME20,6,29-DEC-2010,M,03-Mar-2017,50,music,1,2,1,music02.png,1,0,1,0.92212,1
ME20,6,29-DEC-2010,M,03-Mar-2017,51,tree,0,4,1,tree04.wav,1,1,1,1.1822,1
ME20,6,29-DEC-2010,M,03-Mar-2017,52,tree,1,10,1,tree10.png,0,1,1,0.80504,1
ME20,6,29-DEC-2010,M,03-Mar-2017,53,tree,0,0,0,music10.wav,0,1,1,0,0
ME20,6,29-DEC-2010,M,03-Mar-2017,54,music,1,0,0,tree01.png,1,1,0,0.79095,1
ME20,6,29-DEC-2010,M,03-Mar-2017,55,music,1,0,0,tree05.png,0,0,1,0,0
ME20,6,29-DEC-2010,M,03-Mar-2017,56,music,0,3,1,music03.wav,0,1,1,3.0245,1
ME20,6,29-DEC-2010,M,03-Mar-2017,57,tree,0,2,1,tree02.wav,1,0,1,2.6825,1
ME20,6,29-DEC-2010,M,03-Mar-2017,58,tree,1,9,1,tree09.png,0,1,1,1.2637,1
ME20,6,29-DEC-2010,M,03-Mar-2017,59,tree,1,0,0,music05.png,0,0,1,0,0
ME20,6,29-DEC-2010,M,03-Mar-2017,60,tree,0,8,1,tree08.wav,0,1,1,1.4477,1
ME20,6,29-DEC-2010,M,03-Mar-2017,61,music,1,0,0,tree05.png,1,1,1,0,0
ME20,6,29-DEC-2010,M,03-Mar-2017,62,tree,0,1,1,tree01.wav,1,1,1,1.7113,1
ME20,6,29-DEC-2010,M,03-Mar-2017,63,tree,0,0,0,music08.wav,0,0,1,0,0
ME20,6,29-DEC-2010,M,03-Mar-2017,64,tree,0,8,1,tree08.wav,0,0,0,0,0
ME20,6,29-DEC-2010,M,03-Mar-2017,65,tree,0,3,1,tree03.wav,0,0,1,1.9932,1
ME20,6,29-DEC-2010,M,03-Mar-2017,66,tree,1,0,0,music04.png,0,1,1,0,0
ME20,6,29-DEC-2010,M,03-Mar-2017,67,music,1,2,1,music02.png,1,0,1,1.1583,1
ME20,6,29-DEC-2010,M,03-Mar-2017,68,tree,1,0,0,music08.png,1,0,1,0,0
ME20,6,29-DEC-2010,M,03-Mar-2017,69,tree,0,0,0,music05.wav,0,1,1,0,0
ME20,6,29-DEC-2010,M,03-Mar-2017,70,music,1,0,0,tree01.png,1,1,1,0,0
ME20,6,29-DEC-2010,M,03-Mar-2017,71,music,1,4,1,music04.png,0,0,1,1.6419,1
ME20,6,29-DEC-2010,M,03-Mar-2017,72,tree,0,5,1,tree05.wav,1,1,1,0.99452,1
ME20,6,29-DEC-2010,M,03-Mar-2017,73,music,0,1,1,music01.wav,1,0,1,2.4218,1
ME20,6,29-DEC-2010,M,03-Mar-2017,74,music,1,7,1,music07.png,0,1,1,0.91117,1
ME20,6,29-DEC-2010,M,03-Mar-2017,75,music,0,0,0,tree02.wav,0,1,1,0,0
ME20,6,29-DEC-2010,M,03-Mar-2017,76,music,1,7,1,music07.png,0,1,1,1.0067,1
ME20,6,29-DEC-2010,M,03-Mar-2017,77,music,1,0,0,tree08.png,0,0,1,0,0
ME20,6,29-DEC-2010,M,03-Mar-2017,78,tree,1,0,0,music05.png,1,0,1,0,0
ME20,6,29-DEC-2010,M,03-Mar-2017,79,music,0,0,0,tree02.wav,1,1,1,0,0
ME20,6,29-DEC-2010,M,03-Mar-2017,80,tree,1,10,1,tree10.png,1,1,1,3.7806,1
ME20,6,29-DEC-2010,M,03-Mar-2017,81,music,1,6,1,music06.png,1,0,1,1.1102,1
ME20,6,29-DEC-2010,M,03-Mar-2017,82,music,1,0,0,tree04.png,0,0,1,0,0
ME20,6,29-DEC-2010,M,03-Mar-2017,83,music,1,7,1,music07.png,0,0,1,1.5123,1
ME20,6,29-DEC-2010,M,03-Mar-2017,84,tree,0,10,1,tree10.wav,1,1,1,2.3268,1
ME20,6,29-DEC-2010,M,03-Mar-2017,85,tree,0,0,0,music07.wav,0,0,1,0,0
ME20,6,29-DEC-2010,M,03-Mar-2017,86,tree,1,9,1,tree09.png,0,1,1,1.3248,1
ME20,6,29-DEC-2010,M,03-Mar-2017,87,music,1,8,1,music08.png,1,0,1,0.87372,1
ME20,6,29-DEC-2010,M,03-Mar-2017,88,tree,0,5,1,tree05.wav,1,1,1,1.6902,1
ME20,6,29-DEC-2010,M,03-Mar-2017,89,music,0,4,1,music04.wav,1,0,0,0,0
ME20,6,29-DEC-2010,M,03-Mar-2017,90,music,1,0,0,tree02.png,0,1,1,0,0
ME20,6,29-DEC-2010,M,03-Mar-2017,91,tree,0,3,1,tree03.wav,1,1,1,1.618,1
ME20,6,29-DEC-2010,M,03-Mar-2017,92,music,1,0,0,tree08.png,1,1,1,0,0
ME20,6,29-DEC-2010,M,03-Mar-2017,93,tree,0,2,1,tree02.wav,1,1,1,2.0078,1
ME20,6,29-DEC-2010,M,03-Mar-2017,94,music,0,0,0,tree03.wav,1,0,1,0,0
ME20,6,29-DEC-2010,M,03-Mar-2017,95,music,0,0,0,tree10.wav,0,0,1,0,0
ME20,6,29-DEC-2010,M,03-Mar-2017,96,tree,0,1,1,tree01.wav,1,0,1,1.0156,1
ME20,6,29-DEC-2010,M,03-Mar-2017,97,music,0,0,0,tree03.wav,1,0,1,0,0
ME20,6,29-DEC-2010,M,03-Mar-2017,98,music,0,1,1,music01.wav,0,0,1,0.96881,1
ME20,6,29-DEC-2010,M,03-Mar-2017,99,tree,1,10,1,tree10.png,1,1,1,0.81741,1
ME20,6,29-DEC-2010,M,03-Mar-2017,100,tree,0,0,0,music08.wav,0,1,1,0,0
ME20,6,29-DEC-2010,M,03-Mar-2017,101,tree,0,0,0,music02.wav,0,0,1,0,0
ME20,6,29-DEC-2010,M,03-Mar-2017,102,music,0,0,0,tree03.wav,1,0,1,0,0
ME20,6,29-DEC-2010,M,03-Mar-2017,103,tree,1,9,1,tree09.png,1,1,1,1.1224,1
ME20,6,29-DEC-2010,M,03-Mar-2017,104,music,1,5,1,music05.png,1,0,1,1.547,1
ME20,6,29-DEC-2010,M,03-Mar-2017,105,tree,0,8,1,tree08.wav,1,1,1,2.0658,1
ME20,6,29-DEC-2010,M,03-Mar-2017,106,music,0,0,0,tree01.wav,1,0,1,0,0
ME20,6,29-DEC-2010,M,03-Mar-2017,107,music,1,0,0,tree06.png,0,1,1,0,0
ME20,6,29-DEC-2010,M,03-Mar-2017,108,tree,1,3,1,tree03.png,1,0,1,1.1815,1
ME20,6,29-DEC-2010,M,03-Mar-2017,109,tree,0,0,0,music07.wav,0,1,1,0,0
ME20,6,29-DEC-2010,M,03-Mar-2017,110,music,1,3,1,music03.png,1,1,1,0.83944,1
ME20,6,29-DEC-2010,M,03-Mar-2017,111,tree,0,5,1,tree05.wav,1,1,1,2.6454,1
ME20,6,29-DEC-2010,M,03-Mar-2017,112,music,1,0,0,tree06.png,1,1,1,0,0
ME20,6,29-DEC-2010,M,03-Mar-2017,113,music,0,2,1,music02.wav,0,1,1,1.5008,0
ME20,6,29-DEC-2010,M,03-Mar-2017,114,music,0,0,0,tree05.wav,0,0,1,0,0
ME20,6,29-DEC-2010,M,03-Mar-2017,115,tree,0,2,1,tree02.wav,1,0,1,1.628,1
ME20,6,29-DEC-2010,M,03-Mar-2017,116,music,1,2,1,music02.png,1,1,1,0.99654,1
ME20,6,29-DEC-2010,M,03-Mar-2017,117,music,0,0,0,tree07.wav,0,1,1,0,0
ME20,6,29-DEC-2010,M,03-Mar-2017,118,music,0,10,1,music10.wav,0,0,1,2.982,1
ME20,6,29-DEC-2010,M,03-Mar-2017,119,music,0,7,1,music07.wav,0,0,1,1.265,1
ME20,6,29-DEC-2010,M,03-Mar-2017,120,tree,0,10,1,tree10.wav,1,0,1,2.3409,1
