ID, Age,DOB,Gender,Date,TrialIndex,Cue,Modality,Trial,TargetExist,TargetName,TaskSwitch,ModalitySwitch,Correct,RT,noHits
YE06,4,24-AUG-2012,M,02-Mar-2017,1,tree,0,9,1,tree09.wav,0,0,0,0,0
YE06,4,24-AUG-2012,M,02-Mar-2017,2,music,1,0,0,tree07.png,1,1,1,0,0
YE06,4,24-AUG-2012,M,02-Mar-2017,3,music,0,6,1,music06.wav,0,1,0,0,0
YE06,4,24-AUG-2012,M,02-Mar-2017,4,music,1,0,0,tree10.png,0,1,1,0,0
YE06,4,24-AUG-2012,M,02-Mar-2017,5,music,0,5,1,music05.wav,0,1,0,0,0
YE06,4,24-AUG-2012,M,02-Mar-2017,6,tree,0,2,1,tree02.wav,1,0,0,0,0
YE06,4,24-AUG-2012,M,02-Mar-2017,7,tree,1,0,0,music03.png,0,1,1,0,0
YE06,4,24-AUG-2012,M,02-Mar-2017,8,tree,1,1,1,tree01.png,0,0,0,0,0
YE06,4,24-AUG-2012,M,02-Mar-2017,9,tree,0,0,0,music07.wav,0,1,1,0,0
YE06,4,24-AUG-2012,M,02-Mar-2017,10,music,1,0,0,tree03.png,1,1,1,0,0
YE06,4,24-AUG-2012,M,02-Mar-2017,11,music,1,0,0,tree07.png,0,0,1,0,0
YE06,4,24-AUG-2012,M,02-Mar-2017,12,music,0,6,1,music06.wav,0,1,0,0,0
YE06,4,24-AUG-2012,M,02-Mar-2017,13,music,1,0,0,tree07.png,0,1,1,0,0
YE06,4,24-AUG-2012,M,02-Mar-2017,14,tree,1,2,1,tree02.png,1,0,0,0,0
YE06,4,24-AUG-2012,M,02-Mar-2017,15,tree,0,2,1,tree02.wav,0,1,0,0,0
YE06,4,24-AUG-2012,M,02-Mar-2017,16,music,1,4,1,music04.png,1,1,0,0,0
YE06,4,24-AUG-2012,M,02-Mar-2017,17,tree,1,0,0,music01.png,1,0,1,0,0
YE06,4,24-AUG-2012,M,02-Mar-2017,18,tree,0,7,1,tree07.wav,0,1,1,3.2564,1
YE06,4,24-AUG-2012,M,02-Mar-2017,19,music,1,0,0,tree03.png,1,1,1,0,0
YE06,4,24-AUG-2012,M,02-Mar-2017,20,tree,1,4,1,tree04.png,1,0,1,3.3142,1
YE06,4,24-AUG-2012,M,02-Mar-2017,21,music,1,10,1,music10.png,1,0,1,2.383,1
YE06,4,24-AUG-2012,M,02-Mar-2017,22,tree,1,3,1,tree03.png,1,0,1,1.7352,1
YE06,4,24-AUG-2012,M,02-Mar-2017,23,music,0,1,1,music01.wav,1,1,0,0,0
YE06,4,24-AUG-2012,M,02-Mar-2017,24,music,0,0,0,tree03.wav,0,0,0,2.2771,1
YE06,4,24-AUG-2012,M,02-Mar-2017,25,tree,1,9,1,tree09.png,1,1,1,3.4272,1
YE06,4,24-AUG-2012,M,02-Mar-2017,26,music,1,6,1,music06.png,1,0,1,1.8578,1
YE06,4,24-AUG-2012,M,02-Mar-2017,27,tree,0,1,1,tree01.wav,1,1,1,2.0448,1
YE06,4,24-AUG-2012,M,02-Mar-2017,28,tree,0,2,1,tree02.wav,0,0,1,3.5708,1
YE06,4,24-AUG-2012,M,02-Mar-2017,29,tree,0,8,1,tree08.wav,0,0,0,0,0
YE06,4,24-AUG-2012,M,02-Mar-2017,30,tree,1,0,0,music07.png,0,1,1,0,0
YE06,4,24-AUG-2012,M,02-Mar-2017,31,tree,1,8,1,tree08.png,0,0,1,2.2669,1
YE06,4,24-AUG-2012,M,02-Mar-2017,32,tree,0,0,0,music09.wav,0,1,1,0,0
YE06,4,24-AUG-2012,M,02-Mar-2017,33,tree,1,10,1,tree10.png,0,1,1,2.567,1
YE06,4,24-AUG-2012,M,02-Mar-2017,34,music,0,0,0,tree04.wav,1,1,1,0,0
YE06,4,24-AUG-2012,M,02-Mar-2017,35,music,1,1,1,music01.png,0,1,1,1.7429,1
YE06,4,24-AUG-2012,M,02-Mar-2017,36,music,0,6,1,music06.wav,0,1,0,0,0
YE06,4,24-AUG-2012,M,02-Mar-2017,37,tree,1,4,1,tree04.png,1,1,0,0,0
YE06,4,24-AUG-2012,M,02-Mar-2017,38,tree,0,0,0,music08.wav,0,1,1,0,0
YE06,4,24-AUG-2012,M,02-Mar-2017,39,music,1,0,0,tree07.png,1,1,1,0,0
YE06,4,24-AUG-2012,M,02-Mar-2017,40,tree,1,0,0,music01.png,1,0,1,0,0
YE06,4,24-AUG-2012,M,02-Mar-2017,41,music,0,2,1,music02.wav,1,1,0,0,0
YE06,4,24-AUG-2012,M,02-Mar-2017,42,tree,1,0,0,music07.png,1,1,1,0,0
YE06,4,24-AUG-2012,M,02-Mar-2017,43,tree,1,1,1,tree01.png,0,0,0,0,0
YE06,4,24-AUG-2012,M,02-Mar-2017,44,tree,0,5,1,tree05.wav,0,1,1,3.135,1
YE06,4,24-AUG-2012,M,02-Mar-2017,45,music,1,5,1,music05.png,1,1,1,3.2312,1
YE06,4,24-AUG-2012,M,02-Mar-2017,46,music,0,4,1,music04.wav,0,1,1,3.2562,1
YE06,4,24-AUG-2012,M,02-Mar-2017,47,music,0,9,1,music09.wav,0,0,0,0,0
YE06,4,24-AUG-2012,M,02-Mar-2017,48,music,1,3,1,music03.png,0,1,1,1.992,1
YE06,4,24-AUG-2012,M,02-Mar-2017,49,tree,1,0,0,music04.png,1,0,1,0,0
YE06,4,24-AUG-2012,M,02-Mar-2017,50,music,1,2,1,music02.png,1,0,1,1.9155,1
YE06,4,24-AUG-2012,M,02-Mar-2017,51,tree,0,4,1,tree04.wav,1,1,1,2.2175,1
YE06,4,24-AUG-2012,M,02-Mar-2017,52,tree,1,10,1,tree10.png,0,1,1,1.8901,1
YE06,4,24-AUG-2012,M,02-Mar-2017,53,tree,0,0,0,music10.wav,0,1,1,0,0
YE06,4,24-AUG-2012,M,02-Mar-2017,54,music,1,0,0,tree01.png,1,1,0,2.6791,1
YE06,4,24-AUG-2012,M,02-Mar-2017,55,music,1,0,0,tree05.png,0,0,1,0,0
YE06,4,24-AUG-2012,M,02-Mar-2017,56,music,0,3,1,music03.wav,0,1,1,2.0522,0
YE06,4,24-AUG-2012,M,02-Mar-2017,57,tree,0,2,1,tree02.wav,1,0,1,2.7446,1
YE06,4,24-AUG-2012,M,02-Mar-2017,58,tree,1,9,1,tree09.png,0,1,0,0,0
YE06,4,24-AUG-2012,M,02-Mar-2017,59,tree,1,0,0,music05.png,0,0,1,0,0
YE06,4,24-AUG-2012,M,02-Mar-2017,60,tree,0,8,1,tree08.wav,0,1,1,2.4615,1
YE06,4,24-AUG-2012,M,02-Mar-2017,61,music,1,0,0,tree05.png,1,1,1,0,0
YE06,4,24-AUG-2012,M,02-Mar-2017,62,tree,0,1,1,tree01.wav,1,1,1,2.081,1
YE06,4,24-AUG-2012,M,02-Mar-2017,63,tree,0,0,0,music08.wav,0,0,1,0,0
YE06,4,24-AUG-2012,M,02-Mar-2017,64,tree,0,8,1,tree08.wav,0,0,1,1.5685,1
YE06,4,24-AUG-2012,M,02-Mar-2017,65,tree,0,3,1,tree03.wav,0,0,1,1.5614,1
YE06,4,24-AUG-2012,M,02-Mar-2017,66,tree,1,0,0,music04.png,0,1,1,0,0
YE06,4,24-AUG-2012,M,02-Mar-2017,67,music,1,2,1,music02.png,1,0,1,1.0018,1
YE06,4,24-AUG-2012,M,02-Mar-2017,68,tree,1,0,0,music08.png,1,0,0,2.8032,1
YE06,4,24-AUG-2012,M,02-Mar-2017,69,tree,0,0,0,music05.wav,0,1,1,0,0
YE06,4,24-AUG-2012,M,02-Mar-2017,70,music,1,0,0,tree01.png,1,1,1,0,0
YE06,4,24-AUG-2012,M,02-Mar-2017,71,music,1,4,1,music04.png,0,0,1,1.417,1
YE06,4,24-AUG-2012,M,02-Mar-2017,72,tree,0,5,1,tree05.wav,1,1,0,0,0
YE06,4,24-AUG-2012,M,02-Mar-2017,73,music,0,1,1,music01.wav,1,0,0,0,0
YE06,4,24-AUG-2012,M,02-Mar-2017,74,music,1,7,1,music07.png,0,1,0,0,0
YE06,4,24-AUG-2012,M,02-Mar-2017,75,music,0,0,0,tree02.wav,0,1,0,0.47167,1
YE06,4,24-AUG-2012,M,02-Mar-2017,76,music,1,7,1,music07.png,0,1,1,1.1498,1
YE06,4,24-AUG-2012,M,02-Mar-2017,77,music,1,0,0,tree08.png,0,0,0,0.85978,1
YE06,4,24-AUG-2012,M,02-Mar-2017,78,tree,1,0,0,music05.png,1,0,1,0,0
YE06,4,24-AUG-2012,M,02-Mar-2017,79,music,0,0,0,tree02.wav,1,1,1,0,0
YE06,4,24-AUG-2012,M,02-Mar-2017,80,tree,1,10,1,tree10.png,1,1,1,1.4485,1
YE06,4,24-AUG-2012,M,02-Mar-2017,81,music,1,6,1,music06.png,1,0,1,1.4888,1
YE06,4,24-AUG-2012,M,02-Mar-2017,82,music,1,0,0,tree04.png,0,0,1,0,0
YE06,4,24-AUG-2012,M,02-Mar-2017,83,music,1,7,1,music07.png,0,0,1,1.3458,1
YE06,4,24-AUG-2012,M,02-Mar-2017,84,tree,0,10,1,tree10.wav,1,1,1,0.0019111,1
YE06,4,24-AUG-2012,M,02-Mar-2017,85,tree,0,0,0,music07.wav,0,0,0,0.047604,1
YE06,4,24-AUG-2012,M,02-Mar-2017,86,tree,1,9,1,tree09.png,0,1,1,1.6359,1
YE06,4,24-AUG-2012,M,02-Mar-2017,87,music,1,8,1,music08.png,1,0,1,0.98026,1
YE06,4,24-AUG-2012,M,02-Mar-2017,88,tree,0,5,1,tree05.wav,1,1,1,2.1761,1
YE06,4,24-AUG-2012,M,02-Mar-2017,89,music,0,4,1,music04.wav,1,0,1,1.6461,1
YE06,4,24-AUG-2012,M,02-Mar-2017,90,music,1,0,0,tree02.png,0,1,1,0,0
YE06,4,24-AUG-2012,M,02-Mar-2017,91,tree,0,3,1,tree03.wav,1,1,1,2.254,1
YE06,4,24-AUG-2012,M,02-Mar-2017,92,music,1,0,0,tree08.png,1,1,1,0,0
YE06,4,24-AUG-2012,M,02-Mar-2017,93,tree,0,2,1,tree02.wav,1,1,1,3.6551,1
YE06,4,24-AUG-2012,M,02-Mar-2017,94,music,0,0,0,tree03.wav,1,0,1,0,0
YE06,4,24-AUG-2012,M,02-Mar-2017,95,music,0,0,0,tree10.wav,0,0,0,3.4799,1
YE06,4,24-AUG-2012,M,02-Mar-2017,96,tree,0,1,1,tree01.wav,1,0,1,3.3551,1
YE06,4,24-AUG-2012,M,02-Mar-2017,97,music,0,0,0,tree03.wav,1,0,1,0,0
YE06,4,24-AUG-2012,M,02-Mar-2017,98,music,0,1,1,music01.wav,0,0,1,1.7894,0
YE06,4,24-AUG-2012,M,02-Mar-2017,99,tree,1,10,1,tree10.png,1,1,1,2.6131,1
YE06,4,24-AUG-2012,M,02-Mar-2017,100,tree,0,0,0,music08.wav,0,1,0,0.92047,1
YE06,4,24-AUG-2012,M,02-Mar-2017,101,tree,0,0,0,music02.wav,0,0,1,0,0
YE06,4,24-AUG-2012,M,02-Mar-2017,102,music,0,0,0,tree03.wav,1,0,1,0,0
YE06,4,24-AUG-2012,M,02-Mar-2017,103,tree,1,9,1,tree09.png,1,1,1,2.2372,1
YE06,4,24-AUG-2012,M,02-Mar-2017,104,music,1,5,1,music05.png,1,0,1,1.8517,1
YE06,4,24-AUG-2012,M,02-Mar-2017,105,tree,0,8,1,tree08.wav,1,1,1,2.5207,1
YE06,4,24-AUG-2012,M,02-Mar-2017,106,music,0,0,0,tree01.wav,1,0,1,0,0
YE06,4,24-AUG-2012,M,02-Mar-2017,107,music,1,0,0,tree06.png,0,1,1,0,0
YE06,4,24-AUG-2012,M,02-Mar-2017,108,tree,1,3,1,tree03.png,1,0,1,1.7424,2
YE06,4,24-AUG-2012,M,02-Mar-2017,109,tree,0,0,0,music07.wav,0,1,1,0,0
YE06,4,24-AUG-2012,M,02-Mar-2017,110,music,1,3,1,music03.png,1,1,1,2.3346,1
YE06,4,24-AUG-2012,M,02-Mar-2017,111,tree,0,5,1,tree05.wav,1,1,1,2.0564,1
YE06,4,24-AUG-2012,M,02-Mar-2017,112,music,1,0,0,tree06.png,1,1,1,0,0
YE06,4,24-AUG-2012,M,02-Mar-2017,113,music,0,2,1,music02.wav,0,1,1,1.8268,1
YE06,4,24-AUG-2012,M,02-Mar-2017,114,music,0,0,0,tree05.wav,0,0,0,1.4326,1
YE06,4,24-AUG-2012,M,02-Mar-2017,115,tree,0,2,1,tree02.wav,1,0,1,1.8379,1
YE06,4,24-AUG-2012,M,02-Mar-2017,116,music,1,2,1,music02.png,1,1,1,1.3539,1
YE06,4,24-AUG-2012,M,02-Mar-2017,117,music,0,0,0,tree07.wav,0,1,1,0,0
YE06,4,24-AUG-2012,M,02-Mar-2017,118,music,0,10,1,music10.wav,0,0,1,1.7617,1
YE06,4,24-AUG-2012,M,02-Mar-2017,119,music,0,7,1,music07.wav,0,0,1,2.1357,1
YE06,4,24-AUG-2012,M,02-Mar-2017,120,tree,0,10,1,tree10.wav,1,0,1,2.4755,1
