ID, Age,DOB,Gender,Date,TrialIndex,Cue,Modality,Trial,TargetExist,TargetName,TaskSwitch,ModalitySwitch,Correct,RT,noHits
YE10,4,21-MAR-2012,F,03-Mar-2017,1,tree,1,0,0,music07.png,0,0,1,0,0
YE10,4,21-MAR-2012,F,03-Mar-2017,2,music,0,0,0,tree09.wav,1,1,1,0,0
YE10,4,21-MAR-2012,F,03-Mar-2017,3,tree,1,4,1,tree04.png,1,1,1,3.3805,1
YE10,4,21-MAR-2012,F,03-Mar-2017,4,music,0,0,0,tree09.wav,1,1,1,0,0
YE10,4,21-MAR-2012,F,03-Mar-2017,5,tree,1,0,0,music10.png,1,1,1,0,0
YE10,4,21-MAR-2012,F,03-Mar-2017,6,tree,1,0,0,music02.png,0,0,1,0,0
YE10,4,21-MAR-2012,F,03-Mar-2017,7,tree,1,4,1,tree04.png,0,0,1,2.512,1
YE10,4,21-MAR-2012,F,03-Mar-2017,8,music,1,0,0,tree03.png,1,0,1,0,0
YE10,4,21-MAR-2012,F,03-Mar-2017,9,music,1,0,0,tree09.png,0,0,1,0,0
YE10,4,21-MAR-2012,F,03-Mar-2017,10,tree,1,0,0,music06.png,1,0,1,0,0
YE10,4,21-MAR-2012,F,03-Mar-2017,11,tree,0,7,1,tree07.wav,0,1,0,0,0
YE10,4,21-MAR-2012,F,03-Mar-2017,12,tree,1,0,0,music06.png,0,1,1,0,0
YE10,4,21-MAR-2012,F,03-Mar-2017,13,tree,0,0,0,music07.wav,0,1,1,0,0
YE10,4,21-MAR-2012,F,03-Mar-2017,14,music,0,1,1,music01.wav,1,0,0,0,0
YE10,4,21-MAR-2012,F,03-Mar-2017,15,tree,1,0,0,music09.png,1,1,1,0,0
YE10,4,21-MAR-2012,F,03-Mar-2017,16,music,0,8,1,music08.wav,1,1,1,2.6895,1
YE10,4,21-MAR-2012,F,03-Mar-2017,17,music,0,8,1,music08.wav,0,0,1,2.4175,1
YE10,4,21-MAR-2012,F,03-Mar-2017,18,music,0,0,0,tree06.wav,0,0,1,0,0
YE10,4,21-MAR-2012,F,03-Mar-2017,19,tree,0,2,1,tree02.wav,1,0,1,2.6776,1
YE10,4,21-MAR-2012,F,03-Mar-2017,20,music,1,4,1,music04.png,1,1,0,0,0
YE10,4,21-MAR-2012,F,03-Mar-2017,21,tree,0,6,1,tree06.wav,1,1,1,2.3356,1
YE10,4,21-MAR-2012,F,03-Mar-2017,22,music,1,3,1,music03.png,1,1,0,0,0
YE10,4,21-MAR-2012,F,03-Mar-2017,23,tree,1,6,1,tree06.png,1,0,0,0,0
YE10,4,21-MAR-2012,F,03-Mar-2017,24,tree,0,5,1,tree05.wav,0,1,1,1.7814,1
YE10,4,21-MAR-2012,F,03-Mar-2017,25,music,1,0,0,tree03.png,1,1,1,0,0
YE10,4,21-MAR-2012,F,03-Mar-2017,26,tree,0,0,0,music05.wav,1,1,1,0,0
YE10,4,21-MAR-2012,F,03-Mar-2017,27,music,0,0,0,tree05.wav,1,0,1,0,0
YE10,4,21-MAR-2012,F,03-Mar-2017,28,tree,0,10,1,tree10.wav,1,0,1,3.2511,1
YE10,4,21-MAR-2012,F,03-Mar-2017,29,tree,0,0,0,music10.wav,0,0,1,0,0
YE10,4,21-MAR-2012,F,03-Mar-2017,30,music,1,0,0,tree07.png,1,1,1,0,0
YE10,4,21-MAR-2012,F,03-Mar-2017,31,music,1,3,1,music03.png,0,0,1,3.1598,1
YE10,4,21-MAR-2012,F,03-Mar-2017,32,music,1,8,1,music08.png,0,0,1,1.8742,1
YE10,4,21-MAR-2012,F,03-Mar-2017,33,tree,1,0,0,music07.png,1,0,1,0,0
YE10,4,21-MAR-2012,F,03-Mar-2017,34,tree,1,8,1,tree08.png,0,0,1,2.0507,1
YE10,4,21-MAR-2012,F,03-Mar-2017,35,music,0,9,1,music09.wav,1,1,0,0,0
YE10,4,21-MAR-2012,F,03-Mar-2017,36,music,1,0,0,tree08.png,0,1,1,0,0
YE10,4,21-MAR-2012,F,03-Mar-2017,37,tree,1,0,0,music04.png,1,0,1,0,0
YE10,4,21-MAR-2012,F,03-Mar-2017,38,tree,0,0,0,music06.wav,0,1,1,0,0
YE10,4,21-MAR-2012,F,03-Mar-2017,39,tree,1,0,0,music06.png,0,1,1,0,0
YE10,4,21-MAR-2012,F,03-Mar-2017,40,music,0,8,1,music08.wav,1,1,1,2.0867,1
YE10,4,21-MAR-2012,F,03-Mar-2017,41,music,1,2,1,music02.png,0,1,1,1.8976,1
YE10,4,21-MAR-2012,F,03-Mar-2017,42,tree,0,7,1,tree07.wav,1,1,1,1.8495,1
YE10,4,21-MAR-2012,F,03-Mar-2017,43,tree,0,0,0,music02.wav,0,0,1,0,0
YE10,4,21-MAR-2012,F,03-Mar-2017,44,tree,0,0,0,music06.wav,0,0,1,0,0
YE10,4,21-MAR-2012,F,03-Mar-2017,45,music,0,0,0,tree07.wav,1,0,1,0,0
YE10,4,21-MAR-2012,F,03-Mar-2017,46,music,1,0,0,tree05.png,0,1,1,0,0
YE10,4,21-MAR-2012,F,03-Mar-2017,47,music,0,9,1,music09.wav,0,1,1,2.1923,1
YE10,4,21-MAR-2012,F,03-Mar-2017,48,tree,1,6,1,tree06.png,1,1,1,1.9322,1
YE10,4,21-MAR-2012,F,03-Mar-2017,49,music,1,10,1,music10.png,1,0,1,1.8273,1
YE10,4,21-MAR-2012,F,03-Mar-2017,50,music,0,8,1,music08.wav,0,1,1,1.9093,1
YE10,4,21-MAR-2012,F,03-Mar-2017,51,music,1,7,1,music07.png,0,1,1,1.568,1
YE10,4,21-MAR-2012,F,03-Mar-2017,52,music,0,0,0,tree09.wav,0,1,1,0,0
YE10,4,21-MAR-2012,F,03-Mar-2017,53,music,0,5,1,music05.wav,0,0,0,0,0
YE10,4,21-MAR-2012,F,03-Mar-2017,54,tree,0,0,0,music08.wav,1,0,1,0,0
YE10,4,21-MAR-2012,F,03-Mar-2017,55,music,0,0,0,tree04.wav,1,0,1,0,0
YE10,4,21-MAR-2012,F,03-Mar-2017,56,music,0,5,1,music05.wav,0,0,1,2.5339,1
YE10,4,21-MAR-2012,F,03-Mar-2017,57,tree,1,0,0,music05.png,1,1,1,0,0
YE10,4,21-MAR-2012,F,03-Mar-2017,58,tree,1,0,0,music04.png,0,0,1,0,0
YE10,4,21-MAR-2012,F,03-Mar-2017,59,tree,0,10,1,tree10.wav,0,1,1,2.0869,1
YE10,4,21-MAR-2012,F,03-Mar-2017,60,tree,1,0,0,music08.png,0,1,1,0,0
YE10,4,21-MAR-2012,F,03-Mar-2017,61,music,0,2,1,music02.wav,1,1,1,1.9118,0
YE10,4,21-MAR-2012,F,03-Mar-2017,62,music,1,0,0,tree08.png,0,1,1,0,0
YE10,4,21-MAR-2012,F,03-Mar-2017,63,tree,1,0,0,music05.png,1,0,1,0,0
YE10,4,21-MAR-2012,F,03-Mar-2017,64,music,0,10,1,music10.wav,1,1,1,2.5677,1
YE10,4,21-MAR-2012,F,03-Mar-2017,65,music,1,10,1,music10.png,0,1,1,1.7923,1
YE10,4,21-MAR-2012,F,03-Mar-2017,66,tree,0,7,1,tree07.wav,1,1,1,3.5474,1
YE10,4,21-MAR-2012,F,03-Mar-2017,67,tree,0,6,1,tree06.wav,0,0,1,1.9927,1
YE10,4,21-MAR-2012,F,03-Mar-2017,68,tree,1,9,1,tree09.png,0,1,1,1.7578,1
YE10,4,21-MAR-2012,F,03-Mar-2017,69,tree,0,4,1,tree04.wav,0,1,1,1.8049,1
YE10,4,21-MAR-2012,F,03-Mar-2017,70,music,0,0,0,tree07.wav,1,0,1,0,0
YE10,4,21-MAR-2012,F,03-Mar-2017,71,music,1,5,1,music05.png,0,1,1,1.9792,0
YE10,4,21-MAR-2012,F,03-Mar-2017,72,tree,0,1,1,tree01.wav,1,1,1,1.8851,1
YE10,4,21-MAR-2012,F,03-Mar-2017,73,music,0,0,0,tree10.wav,1,0,1,0,0
YE10,4,21-MAR-2012,F,03-Mar-2017,74,music,1,10,1,music10.png,0,1,1,1.6042,1
YE10,4,21-MAR-2012,F,03-Mar-2017,75,music,0,8,1,music08.wav,0,1,1,1.5781,1
YE10,4,21-MAR-2012,F,03-Mar-2017,76,tree,1,10,1,tree10.png,1,1,1,2.0503,1
YE10,4,21-MAR-2012,F,03-Mar-2017,77,tree,0,6,1,tree06.wav,0,1,1,1.2739,1
YE10,4,21-MAR-2012,F,03-Mar-2017,78,music,0,0,0,tree08.wav,1,0,1,0,0
YE10,4,21-MAR-2012,F,03-Mar-2017,79,tree,1,9,1,tree09.png,1,1,1,1.6734,1
YE10,4,21-MAR-2012,F,03-Mar-2017,80,tree,0,7,1,tree07.wav,0,1,1,1.4729,1
YE10,4,21-MAR-2012,F,03-Mar-2017,81,tree,1,1,1,tree01.png,0,1,1,1.2842,1
YE10,4,21-MAR-2012,F,03-Mar-2017,82,music,0,0,0,tree08.wav,1,1,1,0,0
YE10,4,21-MAR-2012,F,03-Mar-2017,83,tree,1,0,0,music02.png,1,1,1,0,0
YE10,4,21-MAR-2012,F,03-Mar-2017,84,music,1,4,1,music04.png,1,0,1,2.1935,0
YE10,4,21-MAR-2012,F,03-Mar-2017,85,music,1,5,1,music05.png,0,0,1,2.0983,1
YE10,4,21-MAR-2012,F,03-Mar-2017,86,tree,0,2,1,tree02.wav,1,1,1,1.6981,1
YE10,4,21-MAR-2012,F,03-Mar-2017,87,music,1,2,1,music02.png,1,1,1,2.2524,1
YE10,4,21-MAR-2012,F,03-Mar-2017,88,music,1,6,1,music06.png,0,0,1,2.1342,1
YE10,4,21-MAR-2012,F,03-Mar-2017,89,tree,1,3,1,tree03.png,1,0,1,1.9093,0
YE10,4,21-MAR-2012,F,03-Mar-2017,90,music,0,0,0,tree04.wav,1,1,1,0,0
YE10,4,21-MAR-2012,F,03-Mar-2017,91,tree,1,10,1,tree10.png,1,1,1,1.3557,1
YE10,4,21-MAR-2012,F,03-Mar-2017,92,music,0,0,0,tree06.wav,1,1,1,0,0
YE10,4,21-MAR-2012,F,03-Mar-2017,93,music,0,4,1,music04.wav,0,0,1,2.1792,1
YE10,4,21-MAR-2012,F,03-Mar-2017,94,tree,1,0,0,music05.png,1,1,1,0,0
YE10,4,21-MAR-2012,F,03-Mar-2017,95,tree,1,2,1,tree02.png,0,0,1,2.1205,1
YE10,4,21-MAR-2012,F,03-Mar-2017,96,tree,1,8,1,tree08.png,0,0,1,2.099,1
YE10,4,21-MAR-2012,F,03-Mar-2017,97,music,1,0,0,tree01.png,1,0,1,0,0
YE10,4,21-MAR-2012,F,03-Mar-2017,98,tree,0,9,1,tree09.wav,1,1,1,2.169,1
YE10,4,21-MAR-2012,F,03-Mar-2017,99,music,1,1,1,music01.png,1,1,1,1.7548,1
YE10,4,21-MAR-2012,F,03-Mar-2017,100,music,0,4,1,music04.wav,0,1,1,2.3547,1
YE10,4,21-MAR-2012,F,03-Mar-2017,101,music,0,1,1,music01.wav,0,0,1,1.7896,1
YE10,4,21-MAR-2012,F,03-Mar-2017,102,music,1,1,1,music01.png,0,1,1,2.1203,1
YE10,4,21-MAR-2012,F,03-Mar-2017,103,music,0,0,0,tree03.wav,0,1,1,0,0
YE10,4,21-MAR-2012,F,03-Mar-2017,104,tree,1,0,0,music09.png,1,1,1,0,0
YE10,4,21-MAR-2012,F,03-Mar-2017,105,tree,1,6,1,tree06.png,0,0,1,1.7785,1
YE10,4,21-MAR-2012,F,03-Mar-2017,106,tree,1,5,1,tree05.png,0,0,1,1.7106,1
YE10,4,21-MAR-2012,F,03-Mar-2017,107,music,1,4,1,music04.png,1,0,1,2.691,1
YE10,4,21-MAR-2012,F,03-Mar-2017,108,music,1,1,1,music01.png,0,0,1,1.8502,1
YE10,4,21-MAR-2012,F,03-Mar-2017,109,music,1,5,1,music05.png,0,0,1,1.7555,1
YE10,4,21-MAR-2012,F,03-Mar-2017,110,music,1,9,1,music09.png,0,0,1,1.3209,1
YE10,4,21-MAR-2012,F,03-Mar-2017,111,tree,1,3,1,tree03.png,1,0,1,1.1326,1
YE10,4,21-MAR-2012,F,03-Mar-2017,112,tree,0,2,1,tree02.wav,0,1,1,1.8279,1
YE10,4,21-MAR-2012,F,03-Mar-2017,113,tree,1,7,1,tree07.png,0,1,1,2.168,1
YE10,4,21-MAR-2012,F,03-Mar-2017,114,music,1,8,1,music08.png,1,0,1,2.4413,1
YE10,4,21-MAR-2012,F,03-Mar-2017,115,music,0,0,0,tree01.wav,0,1,0,2.0865,1
YE10,4,21-MAR-2012,F,03-Mar-2017,116,tree,0,3,1,tree03.wav,1,0,0,0,0
YE10,4,21-MAR-2012,F,03-Mar-2017,117,tree,0,0,0,music09.wav,0,0,1,0,0
YE10,4,21-MAR-2012,F,03-Mar-2017,118,tree,0,8,1,tree08.wav,0,0,1,1.6049,1
YE10,4,21-MAR-2012,F,03-Mar-2017,119,tree,0,2,1,tree02.wav,0,0,1,1.3316,1
YE10,4,21-MAR-2012,F,03-Mar-2017,120,music,1,0,0,tree01.png,1,1,1,0,0
