age,dob,gender,version,counter,block,trial,rule,target,Right,Left,rt,right answer,hit,no hits
6,02/09/2008,m,1,1,1,1,car.jpg,1,boat10.jpg,car03.jpg,1.2362,1,1,1
6,02/09/2008,m,1,2,1,2,car.jpg,0,cat03.jpg,boat09.jpg,0,1,0,0
6,02/09/2008,m,1,3,1,3,car.jpg,1,cat06.jpg,car08.jpg,0.95554,1,1,1
6,02/09/2008,m,1,4,1,4,car.jpg,0,cat03.jpg,boat04.jpg,0,1,0,0
6,02/09/2008,m,1,5,1,1,car.jpg,0,cat07.jpg,boat06.jpg,0,1,0,0
6,02/09/2008,m,1,6,1,2,car.jpg,0,boat06.jpg,cat08.jpg,0,1,0,0
6,02/09/2008,m,1,7,1,3,car.jpg,0,cat06.jpg,boat01.jpg,0,1,0,0
6,02/09/2008,m,1,8,1,4,car.jpg,0,cat04.jpg,boat01.jpg,0,1,0,0
6,02/09/2008,m,1,9,1,1,car.jpg,0,cat06.jpg,boat03.jpg,0,1,0,0
6,02/09/2008,m,1,10,1,2,car.jpg,1,boat07.jpg,car08.jpg,0.83696,1,1,1
6,02/09/2008,m,1,11,1,3,car.jpg,0,boat03.jpg,cat09.jpg,0,1,0,0
6,02/09/2008,m,1,12,1,4,car.jpg,0,boat10.jpg,cat04.jpg,0,1,0,0
6,02/09/2008,m,1,13,1,1,car.jpg,1,boat08.jpg,car04.jpg,1.1933,1,1,1
6,02/09/2008,m,1,14,1,2,car.jpg,1,car01.jpg,boat01.jpg,1.2173,1,1,1
6,02/09/2008,m,1,15,1,3,car.jpg,1,car07.jpg,cat05.jpg,1.3496,1,1,1
6,02/09/2008,m,1,16,1,4,car.jpg,1,car04.jpg,cat03.jpg,0.85902,1,1,1
6,02/09/2008,m,1,17,1,1,car.jpg,1,cat07.jpg,car04.jpg,1.0629,1,1,1
6,02/09/2008,m,1,18,1,2,car.jpg,1,car09.jpg,boat09.jpg,1.0622,1,1,1
6,02/09/2008,m,1,19,1,3,car.jpg,1,cat07.jpg,car10.jpg,0.91814,1,1,1
6,02/09/2008,m,1,20,1,4,car.jpg,1,cat06.jpg,car02.jpg,0.83626,1,1,1
6,02/09/2008,m,1,21,1,1,car.jpg,0,boat09.jpg,cat01.jpg,0,1,0,0
6,02/09/2008,m,1,22,1,2,car.jpg,1,car10.jpg,boat05.jpg,0.95444,1,1,1
6,02/09/2008,m,1,23,1,3,car.jpg,1,car09.jpg,boat06.jpg,0.77825,1,1,1
6,02/09/2008,m,1,24,1,4,car.jpg,1,car01.jpg,cat06.jpg,0.77675,1,1,1
6,02/09/2008,m,1,25,1,1,car.jpg,1,car01.jpg,cat04.jpg,1.2174,1,1,1
6,02/09/2008,m,1,26,1,2,car.jpg,0,boat01.jpg,boat02.jpg,0,1,0,0
6,02/09/2008,m,1,27,1,3,car.jpg,0,boat07.jpg,boat04.jpg,0,1,0,0
6,02/09/2008,m,1,28,1,4,car.jpg,1,cat07.jpg,car05.jpg,0.85923,1,1,1
6,02/09/2008,m,1,29,1,1,car.jpg,0,cat06.jpg,boat03.jpg,0,1,0,0
6,02/09/2008,m,1,30,1,2,car.jpg,0,cat02.jpg,boat10.jpg,0,1,0,0
6,02/09/2008,m,1,31,1,3,car.jpg,0,boat01.jpg,boat10.jpg,0,1,0,0
6,02/09/2008,m,1,32,1,4,car.jpg,0,boat02.jpg,cat08.jpg,0,1,0,0
6,02/09/2008,m,1,33,1,1,car.jpg,1,cat10.jpg,car07.jpg,0.90719,1,1,1
6,02/09/2008,m,1,34,1,2,car.jpg,1,car03.jpg,cat04.jpg,1.1933,1,1,1
6,02/09/2008,m,1,35,1,3,car.jpg,1,car08.jpg,boat06.jpg,1.374,1,1,1
6,02/09/2008,m,1,36,1,4,car.jpg,1,cat05.jpg,car06.jpg,0.99066,1,1,1
6,02/09/2008,m,1,37,1,1,car.jpg,1,car02.jpg,boat06.jpg,1.3802,1,1,1
6,02/09/2008,m,1,38,1,2,car.jpg,1,car07.jpg,cat09.jpg,0.80063,1,1,1
6,02/09/2008,m,1,39,1,3,car.jpg,1,boat02.jpg,car02.jpg,0.93392,1,1,1
6,02/09/2008,m,1,40,1,4,car.jpg,1,boat02.jpg,car02.jpg,0.80115,1,1,1
6,02/09/2008,m,1,41,2,1,dog.jpg,1,dog01.jpg,boat01.jpg,0.7169,1,1,1
6,02/09/2008,m,1,42,2,2,dog.jpg,0,cat08.jpg,boat09.jpg,0,1,0,0
6,02/09/2008,m,1,43,2,3,dog.jpg,1,boat04.jpg,dog09.jpg,0.77789,1,1,1
6,02/09/2008,m,1,44,2,4,dog.jpg,0,cat08.jpg,cat03.jpg,0,1,0,0
6,02/09/2008,m,1,45,2,1,dog.jpg,1,cat04.jpg,dog07.jpg,1.3969,1,1,1
6,02/09/2008,m,1,46,2,2,dog.jpg,1,dog09.jpg,boat03.jpg,1.1775,1,1,1
6,02/09/2008,m,1,47,2,3,dog.jpg,1,dog01.jpg,boat05.jpg,0.95463,1,1,1
6,02/09/2008,m,1,48,2,4,dog.jpg,0,boat06.jpg,boat07.jpg,0,1,0,0
6,02/09/2008,m,1,49,2,1,dog.jpg,0,boat02.jpg,cat07.jpg,0,1,0,0
6,02/09/2008,m,1,50,2,2,dog.jpg,1,cat07.jpg,dog05.jpg,1.4703,1,1,1
6,02/09/2008,m,1,51,2,3,dog.jpg,1,dog07.jpg,cat09.jpg,1.4673,1,1,1
6,02/09/2008,m,1,52,2,4,dog.jpg,1,boat03.jpg,dog07.jpg,0.83575,1,1,1
6,02/09/2008,m,1,53,2,1,dog.jpg,1,cat06.jpg,dog09.jpg,1.0262,1,1,1
6,02/09/2008,m,1,54,2,2,dog.jpg,0,cat10.jpg,cat09.jpg,0,1,0,0
6,02/09/2008,m,1,55,2,3,dog.jpg,0,boat08.jpg,cat04.jpg,0,1,0,0
6,02/09/2008,m,1,56,2,4,dog.jpg,1,dog06.jpg,boat10.jpg,1.6219,1,1,1
6,02/09/2008,m,1,57,2,1,dog.jpg,1,dog01.jpg,boat03.jpg,1.1832,1,1,1
6,02/09/2008,m,1,58,2,2,dog.jpg,0,cat01.jpg,boat01.jpg,0,1,0,0
6,02/09/2008,m,1,59,2,3,dog.jpg,1,cat06.jpg,dog04.jpg,0.88365,1,1,1
6,02/09/2008,m,1,60,2,4,dog.jpg,1,cat08.jpg,dog07.jpg,1.026,1,1,1
6,02/09/2008,m,1,61,2,1,dog.jpg,0,cat09.jpg,cat05.jpg,0,1,0,0
6,02/09/2008,m,1,62,2,2,dog.jpg,0,cat10.jpg,cat09.jpg,0,1,0,0
6,02/09/2008,m,1,63,2,3,dog.jpg,1,cat04.jpg,dog07.jpg,0.96627,1,1,1
6,02/09/2008,m,1,64,2,4,dog.jpg,1,dog03.jpg,boat04.jpg,1.2526,1,1,1
6,02/09/2008,m,1,65,2,1,dog.jpg,1,cat06.jpg,dog06.jpg,1.1691,1,1,1
6,02/09/2008,m,1,66,2,2,dog.jpg,1,dog06.jpg,cat02.jpg,1.3834,1,1,1
6,02/09/2008,m,1,67,2,3,dog.jpg,1,cat01.jpg,dog06.jpg,1.3027,1,1,1
6,02/09/2008,m,1,68,2,4,dog.jpg,0,cat08.jpg,cat10.jpg,0,1,0,0
6,02/09/2008,m,1,69,2,1,dog.jpg,1,cat09.jpg,dog10.jpg,1.1589,1,1,1
6,02/09/2008,m,1,70,2,2,dog.jpg,1,dog05.jpg,boat02.jpg,1.1931,1,1,1
6,02/09/2008,m,1,71,2,3,dog.jpg,0,cat01.jpg,boat08.jpg,0,1,0,0
6,02/09/2008,m,1,72,2,4,dog.jpg,0,boat07.jpg,boat09.jpg,0,1,0,0
6,02/09/2008,m,1,73,2,1,dog.jpg,0,boat01.jpg,cat01.jpg,0,1,0,0
6,02/09/2008,m,1,74,2,2,dog.jpg,0,boat01.jpg,cat04.jpg,0,1,0,0
6,02/09/2008,m,1,75,2,3,dog.jpg,1,dog10.jpg,boat07.jpg,1.0891,1,1,1
6,02/09/2008,m,1,76,2,4,dog.jpg,1,dog09.jpg,cat07.jpg,1.587,1,1,1
6,02/09/2008,m,1,77,2,1,dog.jpg,0,cat04.jpg,boat09.jpg,0,1,0,0
6,02/09/2008,m,1,78,2,2,dog.jpg,1,cat08.jpg,dog03.jpg,0.90807,1,1,1
6,02/09/2008,m,1,79,2,3,dog.jpg,1,dog08.jpg,boat03.jpg,0.89306,1,1,1
6,02/09/2008,m,1,80,2,4,dog.jpg,0,cat09.jpg,boat09.jpg,0,1,0,0
6,02/09/2008,m,1,81,3,1,car.jpg,0,boat01.jpg,boat04.jpg,0,1,0,0
6,02/09/2008,m,1,82,3,2,car.jpg,0,boat05.jpg,cat03.jpg,0,1,0,0
6,02/09/2008,m,1,83,3,3,car.jpg,0,boat10.jpg,cat01.jpg,0,1,0,0
6,02/09/2008,m,1,84,3,4,car.jpg,0,boat01.jpg,cat08.jpg,0,1,0,0
6,02/09/2008,m,1,85,3,1,dog.jpg,1,dog03.jpg,cat04.jpg,1.0154,1,1,1
6,02/09/2008,m,1,86,3,2,dog.jpg,0,boat07.jpg,cat10.jpg,0,1,0,0
6,02/09/2008,m,1,87,3,3,dog.jpg,0,boat02.jpg,car05.jpg,1.0508,0,1,2
6,02/09/2008,m,1,88,3,4,dog.jpg,0,cat10.jpg,cat09.jpg,0,1,0,0
6,02/09/2008,m,1,89,3,1,car.jpg,0,dog04.jpg,boat10.jpg,0,1,0,0
6,02/09/2008,m,1,90,3,2,car.jpg,0,cat09.jpg,boat05.jpg,0,1,0,0
6,02/09/2008,m,1,91,3,3,car.jpg,0,cat08.jpg,boat01.jpg,0,1,0,0
6,02/09/2008,m,1,92,3,4,car.jpg,0,boat08.jpg,dog02.jpg,0,1,0,0
6,02/09/2008,m,1,93,3,1,dog.jpg,1,dog02.jpg,boat08.jpg,1.8498,1,1,1
6,02/09/2008,m,1,94,3,2,dog.jpg,0,cat10.jpg,boat03.jpg,0,1,0,0
6,02/09/2008,m,1,95,3,3,dog.jpg,0,cat04.jpg,boat09.jpg,0,1,0,0
6,02/09/2008,m,1,96,3,4,dog.jpg,0,boat02.jpg,cat01.jpg,0,1,0,0
6,02/09/2008,m,1,97,3,1,car.jpg,1,dog01.jpg,car08.jpg,1.2074,1,1,1
6,02/09/2008,m,1,98,3,2,car.jpg,0,cat10.jpg,cat03.jpg,0,1,0,0
6,02/09/2008,m,1,99,3,3,car.jpg,1,cat06.jpg,car05.jpg,1.4908,1,1,2
6,02/09/2008,m,1,100,3,4,car.jpg,1,car01.jpg,cat05.jpg,0.93028,1,1,2
6,02/09/2008,m,1,101,3,1,dog.jpg,0,cat01.jpg,car08.jpg,0.76494,0,1,2
6,02/09/2008,m,1,102,3,2,dog.jpg,0,boat06.jpg,boat08.jpg,0,1,0,0
6,02/09/2008,m,1,103,3,3,dog.jpg,1,dog08.jpg,boat03.jpg,1.7553,1,1,1
6,02/09/2008,m,1,104,3,4,dog.jpg,1,dog03.jpg,cat03.jpg,0.97952,1,1,1
6,02/09/2008,m,1,105,3,1,car.jpg,0,boat01.jpg,cat09.jpg,0,1,0,0
6,02/09/2008,m,1,106,3,2,car.jpg,0,cat01.jpg,boat08.jpg,0,1,0,0
6,02/09/2008,m,1,107,3,3,car.jpg,0,boat04.jpg,boat01.jpg,0,1,0,0
6,02/09/2008,m,1,108,3,4,car.jpg,0,cat05.jpg,boat08.jpg,1.6252,0,1,2
6,02/09/2008,m,1,109,3,1,dog.jpg,1,car07.jpg,dog05.jpg,1.0978,1,1,1
6,02/09/2008,m,1,110,3,2,dog.jpg,0,cat01.jpg,car08.jpg,1.316,0,1,2
6,02/09/2008,m,1,111,3,3,dog.jpg,0,boat10.jpg,boat07.jpg,0,1,0,0
6,02/09/2008,m,1,112,3,4,dog.jpg,1,dog03.jpg,cat10.jpg,1.6946,1,1,1
6,02/09/2008,m,1,113,3,1,car.jpg,1,car02.jpg,dog07.jpg,1.2513,1,1,1
6,02/09/2008,m,1,114,3,2,car.jpg,0,cat03.jpg,dog01.jpg,0,1,0,0
6,02/09/2008,m,1,115,3,3,car.jpg,0,cat06.jpg,cat10.jpg,0,1,0,0
6,02/09/2008,m,1,116,3,4,car.jpg,0,dog06.jpg,cat04.jpg,0,1,0,0
6,02/09/2008,m,1,117,3,1,dog.jpg,0,car01.jpg,cat04.jpg,0,1,0,0
6,02/09/2008,m,1,118,3,2,dog.jpg,0,boat05.jpg,cat03.jpg,0,1,0,0
6,02/09/2008,m,1,119,3,3,dog.jpg,1,boat04.jpg,dog02.jpg,1.3036,1,1,1
6,02/09/2008,m,1,120,3,4,dog.jpg,0,boat03.jpg,boat08.jpg,0,1,0,0
6,02/09/2008,m,1,121,3,1,car.jpg,0,dog10.jpg,boat05.jpg,0,1,0,0
6,02/09/2008,m,1,122,3,2,car.jpg,0,cat07.jpg,boat03.jpg,0,1,0,0
6,02/09/2008,m,1,123,3,3,car.jpg,0,boat08.jpg,boat07.jpg,0,1,0,0
6,02/09/2008,m,1,124,3,4,car.jpg,1,car08.jpg,cat08.jpg,1.9345,1,1,1
6,02/09/2008,m,1,125,3,1,dog.jpg,1,dog03.jpg,car08.jpg,1.8484,1,1,1
6,02/09/2008,m,1,126,3,2,dog.jpg,0,cat06.jpg,cat01.jpg,0,1,0,0
6,02/09/2008,m,1,127,3,3,dog.jpg,0,boat09.jpg,cat02.jpg,0,1,0,0
6,02/09/2008,m,1,128,3,4,dog.jpg,0,boat03.jpg,cat02.jpg,0,1,0,0
6,02/09/2008,m,1,129,3,1,car.jpg,1,car05.jpg,dog08.jpg,1.609,1,1,1
6,02/09/2008,m,1,130,3,2,car.jpg,0,boat06.jpg,cat07.jpg,0,1,0,0
6,02/09/2008,m,1,131,3,3,car.jpg,0,boat07.jpg,cat01.jpg,0,1,0,0
6,02/09/2008,m,1,132,3,4,car.jpg,1,dog04.jpg,car09.jpg,1.4582,1,1,1
6,02/09/2008,m,1,133,3,1,dog.jpg,1,dog10.jpg,car09.jpg,1.6355,1,1,1
6,02/09/2008,m,1,134,3,2,dog.jpg,0,boat06.jpg,boat03.jpg,0,1,0,0
6,02/09/2008,m,1,135,3,3,dog.jpg,0,boat04.jpg,boat08.jpg,0,1,0,0
6,02/09/2008,m,1,136,3,4,dog.jpg,1,dog02.jpg,cat02.jpg,1.4095,1,1,1
6,02/09/2008,m,1,137,3,1,car.jpg,1,boat08.jpg,car03.jpg,0.75344,1,1,1
6,02/09/2008,m,1,138,3,2,car.jpg,1,cat09.jpg,car04.jpg,1.0375,1,1,1
6,02/09/2008,m,1,139,3,3,car.jpg,0,boat02.jpg,cat10.jpg,0,1,0,0
6,02/09/2008,m,1,140,3,4,car.jpg,0,dog09.jpg,cat06.jpg,0,1,0,0
6,02/09/2008,m,1,141,3,1,dog.jpg,1,cat07.jpg,dog07.jpg,2.5388,1,1,1
6,02/09/2008,m,1,142,3,2,dog.jpg,0,boat06.jpg,cat05.jpg,0,1,0,0
6,02/09/2008,m,1,143,3,3,dog.jpg,1,dog06.jpg,boat04.jpg,0.9453,1,1,1
6,02/09/2008,m,1,144,3,4,dog.jpg,0,boat09.jpg,boat06.jpg,0,1,0,0
6,02/09/2008,m,1,145,3,1,car.jpg,1,car09.jpg,dog04.jpg,1.1555,1,1,1
6,02/09/2008,m,1,146,3,2,car.jpg,1,dog02.jpg,car06.jpg,1.945,1,1,1
6,02/09/2008,m,1,147,3,3,car.jpg,0,boat07.jpg,cat02.jpg,0,1,0,0
6,02/09/2008,m,1,148,3,4,car.jpg,0,boat08.jpg,cat04.jpg,0,1,0,0
6,02/09/2008,m,1,149,3,1,dog.jpg,0,cat01.jpg,cat06.jpg,0,1,0,0
6,02/09/2008,m,1,150,3,2,dog.jpg,0,cat07.jpg,boat10.jpg,0,1,0,0
6,02/09/2008,m,1,151,3,3,dog.jpg,0,car03.jpg,boat02.jpg,0,1,0,0
6,02/09/2008,m,1,152,3,4,dog.jpg,0,boat05.jpg,car03.jpg,0,1,0,0
6,02/09/2008,m,1,153,3,1,car.jpg,1,car08.jpg,cat03.jpg,1.8026,1,1,1
6,02/09/2008,m,1,154,3,2,car.jpg,0,boat02.jpg,cat04.jpg,0,1,0,0
6,02/09/2008,m,1,155,3,3,car.jpg,0,cat01.jpg,boat09.jpg,0,1,0,0
6,02/09/2008,m,1,156,3,4,car.jpg,0,cat05.jpg,boat06.jpg,0,1,0,0
6,02/09/2008,m,1,157,3,1,dog.jpg,0,car04.jpg,cat09.jpg,0,1,0,0
6,02/09/2008,m,1,158,3,2,dog.jpg,0,cat10.jpg,boat07.jpg,0,1,0,0
6,02/09/2008,m,1,159,3,3,dog.jpg,0,boat09.jpg,car10.jpg,1.4427,0,1,2
6,02/09/2008,m,1,160,3,4,dog.jpg,0,cat01.jpg,car02.jpg,0,1,0,0
