ID, Age,DOB,Gender,Date,TrialIndex,Cue,Modality,Trial,TargetExist,TargetName,TaskSwitch,ModalitySwitch,Correct,RT,noHits
OP02                                                           ,6,30-JAN-2010,F,06-Jul-2016,1,tree,0,0,0,music02.wav,0,0,1,0,0
OP02                                                           ,6,30-JAN-2010,F,06-Jul-2016,2,tree,0,7,1,tree07.wav,0,0,1,1.4737,1
OP02                                                           ,6,30-JAN-2010,F,06-Jul-2016,3,tree,1,7,1,tree07.png,0,1,1,1.6122,1
OP02                                                           ,6,30-JAN-2010,F,06-Jul-2016,4,music,0,0,0,tree08.wav,1,1,1,0,0
OP02                                                           ,6,30-JAN-2010,F,06-Jul-2016,5,tree,1,6,1,tree06.png,1,1,1,1.2206,1
OP02                                                           ,6,30-JAN-2010,F,06-Jul-2016,6,music,1,0,0,tree09.png,1,0,0,1.3934,1
OP02                                                           ,6,30-JAN-2010,F,06-Jul-2016,7,music,1,0,0,tree04.png,0,0,1,0,0
OP02                                                           ,6,30-JAN-2010,F,06-Jul-2016,8,music,0,7,1,music07.wav,0,1,1,2.0368,0
OP02                                                           ,6,30-JAN-2010,F,06-Jul-2016,9,tree,0,6,1,tree06.wav,1,0,1,2.3575,1
OP02                                                           ,6,30-JAN-2010,F,06-Jul-2016,10,music,0,9,1,music09.wav,1,0,1,2.3582,0
OP02                                                           ,6,30-JAN-2010,F,06-Jul-2016,11,music,1,1,1,music01.png,0,1,1,1.4389,1
OP02                                                           ,6,30-JAN-2010,F,06-Jul-2016,12,tree,0,0,0,music07.wav,1,1,1,0,0
OP02                                                           ,6,30-JAN-2010,F,06-Jul-2016,13,music,1,0,0,tree03.png,1,1,1,0,0
OP02                                                           ,6,30-JAN-2010,F,06-Jul-2016,14,tree,1,7,1,tree07.png,1,0,1,1.7371,1
OP02                                                           ,6,30-JAN-2010,F,06-Jul-2016,15,tree,0,2,1,tree02.wav,0,1,1,1.8293,0
OP02                                                           ,6,30-JAN-2010,F,06-Jul-2016,16,tree,0,0,0,music06.wav,0,0,1,0,0
OP02                                                           ,6,30-JAN-2010,F,06-Jul-2016,17,tree,1,6,1,tree06.png,0,1,1,1.8519,1
OP02                                                           ,6,30-JAN-2010,F,06-Jul-2016,18,tree,1,10,1,tree10.png,0,0,1,1.2426,1
OP02                                                           ,6,30-JAN-2010,F,06-Jul-2016,19,music,0,2,1,music02.wav,1,1,1,1.3691,0
OP02                                                           ,6,30-JAN-2010,F,06-Jul-2016,20,tree,1,6,1,tree06.png,1,1,1,3.1487,1
OP02                                                           ,6,30-JAN-2010,F,06-Jul-2016,21,tree,0,0,0,music09.wav,0,1,1,0,0
OP02                                                           ,6,30-JAN-2010,F,06-Jul-2016,22,music,1,0,0,tree06.png,1,1,1,0,0
OP02                                                           ,6,30-JAN-2010,F,06-Jul-2016,23,tree,0,0,0,music04.wav,1,1,1,0,0
OP02                                                           ,6,30-JAN-2010,F,06-Jul-2016,24,music,0,9,1,music09.wav,1,0,1,1.8873,1
OP02                                                           ,6,30-JAN-2010,F,06-Jul-2016,25,music,1,0,0,tree03.png,0,1,1,0,0
OP02                                                           ,6,30-JAN-2010,F,06-Jul-2016,26,tree,0,0,0,music05.wav,1,1,1,0,0
OP02                                                           ,6,30-JAN-2010,F,06-Jul-2016,27,music,1,3,1,music03.png,1,1,1,1.6345,1
OP02                                                           ,6,30-JAN-2010,F,06-Jul-2016,28,tree,1,0,0,music05.png,1,0,1,0,0
OP02                                                           ,6,30-JAN-2010,F,06-Jul-2016,29,music,1,0,0,tree04.png,1,0,1,0,0
OP02                                                           ,6,30-JAN-2010,F,06-Jul-2016,30,tree,0,0,0,music06.wav,1,1,1,0,0
OP02                                                           ,6,30-JAN-2010,F,06-Jul-2016,31,music,1,0,0,tree08.png,1,1,1,0,0
OP02                                                           ,6,30-JAN-2010,F,06-Jul-2016,32,tree,0,0,0,music05.wav,1,1,1,0,0
OP02                                                           ,6,30-JAN-2010,F,06-Jul-2016,33,tree,1,2,1,tree02.png,0,1,1,1.519,1
OP02                                                           ,6,30-JAN-2010,F,06-Jul-2016,34,tree,1,0,0,music05.png,0,0,1,0,0
OP02                                                           ,6,30-JAN-2010,F,06-Jul-2016,35,tree,0,6,1,tree06.wav,0,1,1,1.5532,1
OP02                                                           ,6,30-JAN-2010,F,06-Jul-2016,36,music,0,8,1,music08.wav,1,0,1,2.4722,1
OP02                                                           ,6,30-JAN-2010,F,06-Jul-2016,37,tree,0,0,0,music02.wav,1,0,1,0,0
OP02                                                           ,6,30-JAN-2010,F,06-Jul-2016,38,music,0,0,0,tree01.wav,1,0,1,0,0
OP02                                                           ,6,30-JAN-2010,F,06-Jul-2016,39,tree,1,9,1,tree09.png,1,1,1,3.2775,1
OP02                                                           ,6,30-JAN-2010,F,06-Jul-2016,40,tree,0,9,1,tree09.wav,0,1,1,2.7252,1
OP02                                                           ,6,30-JAN-2010,F,06-Jul-2016,41,music,0,7,1,music07.wav,1,0,1,1.9103,1
OP02                                                           ,6,30-JAN-2010,F,06-Jul-2016,42,tree,1,0,0,music03.png,1,1,0,3.369,1
OP02                                                           ,6,30-JAN-2010,F,06-Jul-2016,43,tree,0,0,0,music04.wav,0,1,1,0,0
OP02                                                           ,6,30-JAN-2010,F,06-Jul-2016,44,music,1,5,1,music05.png,1,1,1,1.263,1
OP02                                                           ,6,30-JAN-2010,F,06-Jul-2016,45,tree,0,6,1,tree06.wav,1,1,1,1.3356,1
OP02                                                           ,6,30-JAN-2010,F,06-Jul-2016,46,music,0,2,1,music02.wav,1,0,1,2.6122,1
OP02                                                           ,6,30-JAN-2010,F,06-Jul-2016,47,tree,0,1,1,tree01.wav,1,0,1,1.8073,1
OP02                                                           ,6,30-JAN-2010,F,06-Jul-2016,48,tree,1,0,0,music07.png,0,1,1,0,0
OP02                                                           ,6,30-JAN-2010,F,06-Jul-2016,49,tree,0,0,0,music10.wav,0,1,1,0,0
OP02                                                           ,6,30-JAN-2010,F,06-Jul-2016,50,tree,1,0,0,music10.png,0,1,1,0,0
OP02                                                           ,6,30-JAN-2010,F,06-Jul-2016,51,tree,1,0,0,music05.png,0,0,1,0,0
OP02                                                           ,6,30-JAN-2010,F,06-Jul-2016,52,music,1,9,1,music09.png,1,0,1,1.7828,1
OP02                                                           ,6,30-JAN-2010,F,06-Jul-2016,53,music,0,1,1,music01.wav,0,1,1,1.2897,1
OP02                                                           ,6,30-JAN-2010,F,06-Jul-2016,54,music,1,10,1,music10.png,0,1,1,1.1513,1
OP02                                                           ,6,30-JAN-2010,F,06-Jul-2016,55,music,1,7,1,music07.png,0,0,1,1.2431,1
OP02                                                           ,6,30-JAN-2010,F,06-Jul-2016,56,music,0,0,0,tree03.wav,0,1,1,0,0
OP02                                                           ,6,30-JAN-2010,F,06-Jul-2016,57,tree,1,1,1,tree01.png,1,1,1,1.4378,1
OP02                                                           ,6,30-JAN-2010,F,06-Jul-2016,58,tree,0,3,1,tree03.wav,0,1,1,1.2743,1
OP02                                                           ,6,30-JAN-2010,F,06-Jul-2016,59,tree,0,0,0,music08.wav,0,0,1,0,0
OP02                                                           ,6,30-JAN-2010,F,06-Jul-2016,60,music,0,0,0,tree08.wav,1,0,1,0,0
OP02                                                           ,6,30-JAN-2010,F,06-Jul-2016,61,music,1,0,0,tree08.png,0,1,0,0.90923,1
OP02                                                           ,6,30-JAN-2010,F,06-Jul-2016,62,music,1,5,1,music05.png,0,0,1,1.851,1
OP02                                                           ,6,30-JAN-2010,F,06-Jul-2016,63,music,1,0,0,tree08.png,0,0,1,0,0
OP02                                                           ,6,30-JAN-2010,F,06-Jul-2016,64,tree,0,3,1,tree03.wav,1,1,1,1.5581,1
OP02                                                           ,6,30-JAN-2010,F,06-Jul-2016,65,music,0,7,1,music07.wav,1,0,1,2.537,1
OP02                                                           ,6,30-JAN-2010,F,06-Jul-2016,66,music,1,7,1,music07.png,0,1,1,1.1384,1
OP02                                                           ,6,30-JAN-2010,F,06-Jul-2016,67,music,0,10,1,music10.wav,0,1,1,1.312,1
OP02                                                           ,6,30-JAN-2010,F,06-Jul-2016,68,music,1,9,1,music09.png,0,1,1,0.7208,1
OP02                                                           ,6,30-JAN-2010,F,06-Jul-2016,69,tree,0,9,1,tree09.wav,1,1,1,1.2075,1
OP02                                                           ,6,30-JAN-2010,F,06-Jul-2016,70,tree,0,4,1,tree04.wav,0,0,1,0.91999,1
OP02                                                           ,6,30-JAN-2010,F,06-Jul-2016,71,music,0,0,0,tree02.wav,1,0,0,1.1017,1
OP02                                                           ,6,30-JAN-2010,F,06-Jul-2016,72,music,0,2,1,music02.wav,0,0,1,2.9406,1
OP02                                                           ,6,30-JAN-2010,F,06-Jul-2016,73,music,1,0,0,tree07.png,0,1,0,1.3808,1
OP02                                                           ,6,30-JAN-2010,F,06-Jul-2016,74,music,1,0,0,tree05.png,0,0,1,0,0
OP02                                                           ,6,30-JAN-2010,F,06-Jul-2016,75,music,0,10,1,music10.wav,0,1,1,1.5648,1
OP02                                                           ,6,30-JAN-2010,F,06-Jul-2016,76,music,1,8,1,music08.png,0,1,1,1.5195,1
OP02                                                           ,6,30-JAN-2010,F,06-Jul-2016,77,music,1,2,1,music02.png,0,0,1,1.91,1
OP02                                                           ,6,30-JAN-2010,F,06-Jul-2016,78,music,0,1,1,music01.wav,0,1,1,1.4506,1
OP02                                                           ,6,30-JAN-2010,F,06-Jul-2016,79,music,0,0,0,tree03.wav,0,0,1,0,0
OP02                                                           ,6,30-JAN-2010,F,06-Jul-2016,80,music,0,0,0,tree01.wav,0,0,1,0,0
OP02                                                           ,6,30-JAN-2010,F,06-Jul-2016,81,tree,0,0,0,music09.wav,1,0,1,0,0
OP02                                                           ,6,30-JAN-2010,F,06-Jul-2016,82,music,1,5,1,music05.png,1,1,1,1.5184,1
OP02                                                           ,6,30-JAN-2010,F,06-Jul-2016,83,tree,0,5,1,tree05.wav,1,1,1,1.4961,1
OP02                                                           ,6,30-JAN-2010,F,06-Jul-2016,84,music,1,3,1,music03.png,1,1,1,1.1157,1
OP02                                                           ,6,30-JAN-2010,F,06-Jul-2016,85,tree,0,5,1,tree05.wav,1,1,1,1.0942,1
OP02                                                           ,6,30-JAN-2010,F,06-Jul-2016,86,tree,0,0,0,music02.wav,0,0,1,0,0
OP02                                                           ,6,30-JAN-2010,F,06-Jul-2016,87,music,1,5,1,music05.png,1,1,1,1.1051,1
OP02                                                           ,6,30-JAN-2010,F,06-Jul-2016,88,tree,1,1,1,tree01.png,1,0,1,1.1401,1
OP02                                                           ,6,30-JAN-2010,F,06-Jul-2016,89,music,0,0,0,tree02.wav,1,1,0,1.7256,1
OP02                                                           ,6,30-JAN-2010,F,06-Jul-2016,90,music,0,7,1,music07.wav,0,0,1,1.0589,1
OP02                                                           ,6,30-JAN-2010,F,06-Jul-2016,91,tree,0,3,1,tree03.wav,1,0,1,2.2467,1
OP02                                                           ,6,30-JAN-2010,F,06-Jul-2016,92,music,0,0,0,tree07.wav,1,0,0,2.0251,1
OP02                                                           ,6,30-JAN-2010,F,06-Jul-2016,93,tree,0,0,0,music09.wav,1,0,1,0,0
OP02                                                           ,6,30-JAN-2010,F,06-Jul-2016,94,tree,1,0,0,music06.png,0,1,1,0,0
OP02                                                           ,6,30-JAN-2010,F,06-Jul-2016,95,tree,1,7,1,tree07.png,0,0,1,1.5311,1
OP02                                                           ,6,30-JAN-2010,F,06-Jul-2016,96,music,0,0,0,tree08.wav,1,1,1,0,0
OP02                                                           ,6,30-JAN-2010,F,06-Jul-2016,97,tree,0,10,1,tree10.wav,1,0,0,0,0
OP02                                                           ,6,30-JAN-2010,F,06-Jul-2016,98,tree,1,8,1,tree08.png,0,1,1,1.2194,1
OP02                                                           ,6,30-JAN-2010,F,06-Jul-2016,99,music,0,6,1,music06.wav,1,1,1,1.4734,1
OP02                                                           ,6,30-JAN-2010,F,06-Jul-2016,100,music,0,5,1,music05.wav,0,0,1,2.1068,1
OP02                                                           ,6,30-JAN-2010,F,06-Jul-2016,101,tree,1,6,1,tree06.png,1,1,1,1.0118,1
OP02                                                           ,6,30-JAN-2010,F,06-Jul-2016,102,tree,1,3,1,tree03.png,0,0,1,1.0358,1
OP02                                                           ,6,30-JAN-2010,F,06-Jul-2016,103,tree,0,10,1,tree10.wav,0,1,1,1.7019,1
OP02                                                           ,6,30-JAN-2010,F,06-Jul-2016,104,tree,1,0,0,music02.png,0,1,1,0,0
OP02                                                           ,6,30-JAN-2010,F,06-Jul-2016,105,tree,1,6,1,tree06.png,0,0,1,1.1515,1
OP02                                                           ,6,30-JAN-2010,F,06-Jul-2016,106,music,0,3,1,music03.wav,1,1,1,2.9199,1
OP02                                                           ,6,30-JAN-2010,F,06-Jul-2016,107,tree,1,9,1,tree09.png,1,1,1,1.3112,1
OP02                                                           ,6,30-JAN-2010,F,06-Jul-2016,108,music,1,9,1,music09.png,1,0,1,1.6454,1
OP02                                                           ,6,30-JAN-2010,F,06-Jul-2016,109,music,1,9,1,music09.png,0,0,1,0.96669,1
OP02                                                           ,6,30-JAN-2010,F,06-Jul-2016,110,tree,0,6,1,tree06.wav,1,1,1,1.5644,1
OP02                                                           ,6,30-JAN-2010,F,06-Jul-2016,111,music,0,3,1,music03.wav,1,0,1,1.1395,1
OP02                                                           ,6,30-JAN-2010,F,06-Jul-2016,112,tree,0,9,1,tree09.wav,1,0,1,1.0343,1
OP02                                                           ,6,30-JAN-2010,F,06-Jul-2016,113,tree,0,0,0,music10.wav,0,0,1,0,0
OP02                                                           ,6,30-JAN-2010,F,06-Jul-2016,114,music,1,0,0,tree06.png,1,1,1,0,0
OP02                                                           ,6,30-JAN-2010,F,06-Jul-2016,115,music,0,5,1,music05.wav,0,1,1,3.1393,1
OP02                                                           ,6,30-JAN-2010,F,06-Jul-2016,116,music,1,10,1,music10.png,0,1,1,1.2878,1
OP02                                                           ,6,30-JAN-2010,F,06-Jul-2016,117,tree,0,1,1,tree01.wav,1,1,0,0,0
OP02                                                           ,6,30-JAN-2010,F,06-Jul-2016,118,music,0,6,1,music06.wav,1,0,1,3.0827,1
OP02                                                           ,6,30-JAN-2010,F,06-Jul-2016,119,tree,1,0,0,music07.png,1,1,0,1.9903,1
OP02                                                           ,6,30-JAN-2010,F,06-Jul-2016,120,music,1,0,0,tree01.png,1,0,0,1.0357,1
